ankleAngleX, ankleAngleY, ankleAngleZ, lowLegAngleMag,lowLegAngleX, lowLegAngleY, lowLegAngleZ, lowLegAngleVeloMag, lowLegAngleVeloX, lowLegAngleVeloY, lowLegAngleVeloZ, lowLegAngleAccelX, lowLegAngleAccelY, lowLegAngleAccelZ, footAngleMag, footAngleX, footAngleY, footAngleZ, footAngleVeloMag, footAngleVeloX, footAngleVeloY,  footAngleVeloZ, footAngleAccelMag, footAngleAccelX, footAngleAccelY, footAngleAccelZ, footPosMag, footPosX, footPosY, footPosZ,footSpeedMag, footSpeedX, footSpeedY, footSpeedZ, footAccelMag, footAccelX, footAccelY, footAccelZ, lowLegPosMag, lowLegPosX, lowLegPosY, lowLegPosZ, lowLegSpeedMag, lowLegSpeedX, lowLegSpeedY, lowLegSpeedZ, lowLegAccelMag, lowLegAccelX, lowLegAccelY, lowLegAccelZ, medGastro, tibAnterior,
9.8172245,0.23370288,-4.105768,,,,,,,,,0.0,0.0,0.0,0.0,0.0,0.0,0.0,0.0,0.0,0.0,0.0,0.0,0.0,0.0,0.0,0.0,0.0,0.0,0.0,0.0,0.0,0.0,0.0,0.0,0.0,0.0,0.0,,,,,0.0,0.0,0.0,0.0,0.0,0.0,0.0,0.0,4.9250326,0.8409914,
10.977133,0.31829226,-3.7360299,25.555426,24.483158,-4.005192,6.132959,0.8172661,0.76958954,0.06896697,0.2662694,30.78358,1.2818855,-2.8991845,11.599856,-10.977133,-0.3182924,3.7360299,0.08003002,-0.011157544,0.032047138,-0.07247961,0.44630176,-0.44630176,0.0,0.0,0.91896385,-0.16400233,-0.8957551,0.12337182,0.24103524,0.006953478,0.1851201,0.15420824,3.4756167,0.31518936,2.831459,1.9908309,0.8709576,-0.15481219,-0.8568854,0.018649466,0.2391457,0.006415844,0.18328428,0.15348084,3.4217057,0.31647682,2.7787209,1.971452,4.9250326,0.8409914,
12.216561,0.24153015,-3.3264127,28.946548,27.583399,-4.866755,7.3057137,0.8731126,0.8232956,-0.043287322,0.28746524,2.148242,0.124550164,-0.03888607,12.663638,-12.216561,-0.24152996,3.326413,0.082235254,-0.0114536965,0.03516089,-0.073451765,0.011846088,-0.011846088,0.0,0.0,0.91396934,-0.16510203,-0.88979304,0.12786528,0.30185276,-0.043988228,0.23848295,0.1797387,3.1226797,-2.0376682,2.1345139,1.0212183,0.86544776,-0.15593262,-0.8509701,0.023123752,0.3000405,-0.04481733,0.23661137,0.17897144,3.1288047,-2.049327,2.1330833,1.0196239,5.84696,0.86326927,
13.44391,0.010040967,-2.9457576,32.3946,30.742142,-5.507972,8.601927,0.9033952,0.8395958,-0.16237906,0.29126412,0.65200806,-0.53118974,1.436347,13.762859,-13.44391,-0.010040999,2.9457576,0.044570316,0.009911855,0.021881148,-0.03754309,0.85462207,0.85462207,0.0,0.0,0.90839493,-0.16692854,-0.8831233,0.13194475,0.3211575,-0.07306039,0.2667904,0.16317844,1.7530516,-1.1628866,1.1322975,-0.66241026,0.85933024,-0.15777998,-0.8442829,0.027207818,0.32201982,-0.07389426,0.26748657,0.16336262,1.8077086,-1.1630774,1.2350082,-0.6243527,7.3560095,0.8409914,
14.656624,-0.22181891,-2.5855925,35.854374,33.995983,-5.7746897,9.821517,0.9244093,0.85335225,-0.18116009,0.3057835,0.55025816,-0.79262656,1.2217,14.884593,-14.656624,0.22181877,2.5855927,0.033120718,0.032306463,0.0020654825,-0.0070005897,0.8957843,0.8957843,0.0,0.0,0.90218383,-0.16830897,-0.8758397,0.1360609,0.3391722,-0.055217147,0.29134274,0.16464591,1.2154686,0.71372986,0.9820938,0.058698654,0.85249275,-0.15915902,-0.83691645,0.03135489,0.3426134,-0.055161715,0.29465914,0.16588286,1.3239989,0.7493019,1.0869026,0.100809336,8.559367,0.8688388,
15.865641,-0.3929807,-2.237213,39.402027,37.42969,-5.7310762,10.894619,0.9329981,0.86482036,-0.15830755,0.31226578,0.4587245,-0.79628944,0.42089096,16.027418,-15.865641,0.3929809,2.237213,0.0496636,0.046214096,-0.017841753,0.0035216846,0.55630535,0.55630535,0.0,0.0,0.8950331,-0.16902545,-0.8675562,0.14092897,0.38538873,-0.028659105,0.33133984,0.19472301,2.266179,1.0623217,1.599884,1.203084,0.8445665,-0.15983222,-0.8285111,0.036272097,0.39044935,-0.026928186,0.3362131,0.19668832,2.3572328,1.1293411,1.662159,1.2322187,8.229414,0.9468115,
17.037413,-0.49350497,-1.9622734,43.017307,40.991238,-5.4661555,11.8460245,0.92179435,0.866321,-0.12685129,0.2882733,0.060026646,-0.9403367,0.9068814,17.157143,-17.037413,0.49350518,1.9622734,0.08521785,0.069757685,-0.04135017,0.02619372,0.94174355,0.94174355,0.0,0.0,0.8870104,-0.1698112,-0.8582126,0.1463651,0.4335386,-0.031430125,0.37374496,0.2174455,1.9275621,-0.1108408,1.6962051,0.9088993,0.83561015,-0.16053545,-0.818979,0.041786026,0.44137743,-0.02812922,0.38128376,0.22055715,2.0405986,-0.048041344,1.8028259,0.95475316,6.798001,1.0192147,
18.134321,-0.40081632,-1.7970172,46.60895,44.507664,-5.151728,12.84219,0.89456016,0.8501714,-0.008655357,0.27815747,-0.6459856,-0.9776306,2.0303667,18.227549,-18.134321,0.40081596,1.7970172,0.14360827,0.10184863,-0.06579094,0.07695289,1.2836379,1.2836379,0.0,0.0,0.87847143,-0.17093813,-0.84822273,0.15169165,0.4550855,-0.045077205,0.3995943,0.21306157,1.1823028,-0.5458832,1.0339737,-0.17535686,0.8260376,-0.16156623,-0.8087051,0.047228176,0.4668759,-0.041230917,0.41095734,0.217686,1.3025631,-0.5240679,1.186943,-0.11484623,5.497598,1.0414926,
19.118332,-0.061076358,-1.6642464,50.04561,47.829918,-4.7215047,13.948802,0.8724857,0.8058808,0.16068229,0.29320404,-1.7716241,-0.067026615,0.7327199,19.19073,-19.118332,0.06107629,1.6642466,0.1819152,0.1395165,-0.0674666,0.09527089,1.5067148,1.5067148,0.0,0.0,0.8697328,-0.17230794,-0.83800566,0.15649815,0.45495912,-0.054792166,0.40868282,0.19226015,0.9876687,-0.38859844,0.36354065,-0.832057,0.8162177,-0.16285455,-0.79810154,0.052189052,0.47109285,-0.051532984,0.42414188,0.19843504,1.0202465,-0.41208267,0.5273819,-0.77003837,4.7309427,1.0359231,
19.97954,0.49389476,-1.4639393,53.300377,50.942562,-4.112376,15.128579,0.86613643,0.74194694,0.3132816,0.31868738,-2.557354,0.6496939,-1.4821923,20.039188,-19.97954,-0.49389496,1.4639393,0.18806039,0.17132914,-0.051224254,0.05821608,1.2725055,1.2725055,0.0,0.0,0.8609727,-0.17362007,-0.8277528,0.16110656,0.45268923,-0.052485466,0.41011333,0.1843363,0.33503312,0.09226799,0.05722046,-0.31695366,0.806321,-0.16409165,-0.7873885,0.056981523,0.4720465,-0.049483776,0.42852163,0.19169882,0.33168203,0.08196831,0.17518997,-0.26944876,4.3621716,1.0414926,
20.71252,1.1842778,-1.182029,56.474033,53.943592,-3.3552315,16.37522,0.85615444,0.67250293,0.41139856,0.33390346,-2.77776,0.8075158,-1.954903,20.779995,-20.71252,-1.1842778,1.182029,0.20291592,0.20031054,-0.031036358,0.009343504,1.1592561,1.1592561,0.0,0.0,0.8522756,-0.17493995,-0.8174057,0.16618532,0.46406716,-0.052794814,0.41388512,0.20315051,0.767642,-0.012373924,0.15087128,0.75256824,0.79636407,-0.16534027,-0.7765182,0.06227117,0.4861315,-0.049945116,0.43481112,0.21158591,0.8345219,-0.018453598,0.25157928,0.7954836,4.129264,1.0526316,
21.312029,1.8310969,-0.8873988,59.548676,56.83269,-2.6258924,17.583933,0.77977836,0.60382473,0.39485055,0.2958767,-2.747128,0.771591,-1.3636858,21.408945,-21.312029,-1.8310971,0.8873989,0.22553504,0.22386509,-0.0117465835,-0.024748644,0.94218194,0.94218194,0.0,0.0,0.8438805,-0.17630255,-0.80720526,0.17167228,0.46649757,-0.054504275,0.40801764,0.2194786,0.69737375,-0.06837845,-0.23469925,0.65312386,0.78661054,-0.16664693,-0.76574284,0.06799139,0.49077445,-0.05226612,0.4310155,0.22880882,0.7115307,-0.092840195,-0.15182495,0.68891644,3.9060605,0.9969368,
21.837671,2.3505795,-0.584642,62.464962,59.58514,-2.1374824,18.625624,0.67359036,0.54484886,0.32391572,0.22790858,-2.359035,0.7932505,-2.1280804,21.971594,-21.837671,-2.3505795,0.5846419,0.2262764,0.21227185,0.00808468,-0.07795066,0.4637295,-0.4637295,0.0,0.0,0.8355702,-0.1771168,-0.7970815,0.17739356,0.4662824,-0.032569766,0.40495157,0.22885084,0.96196645,0.8773804,-0.12264252,0.37488937,0.77694744,-0.16740079,-0.75508827,0.07393215,0.48888567,-0.030154586,0.42618275,0.23763031,0.971674,0.8844614,-0.19330978,0.3528595,3.469358,0.92453355,
22.341331,2.7259986,-0.29546067,65.23324,62.22945,-1.9402485,19.470646,0.5735854,0.5005003,0.24467427,0.13650693,-1.7739415,0.7405004,-2.460909,22.508965,-22.341331,-2.7259984,0.29546055,0.2269759,0.17708142,0.02659719,-0.13947338,1.4076173,-1.4076173,0.0,0.0,0.826989,-0.17761198,-0.78662986,0.18324377,0.47951046,-0.01980722,0.4180646,0.23400843,0.7604574,0.51050186,0.5245209,0.2063036,0.76707876,-0.16781755,-0.74421304,0.0799627,0.49769348,-0.016670227,0.435009,0.24122208,0.6604623,0.53937435,0.35305023,0.14367104,2.8531225,0.87440825,
22.820274,3.0415525,-0.08390822,67.903,64.77595,-1.849575,20.284794,0.526237,0.46899694,0.22334589,0.08416588,-1.2601352,0.40228203,0.37372708,23.022226,-22.820274,-3.0415523,0.083908334,0.20650494,0.15609896,0.03665424,-0.1301302,0.83929837,-0.83929837,0.0,0.0,0.81822383,-0.17833424,-0.77589303,0.18888395,0.4859838,-0.028890371,0.42947292,0.22560716,0.6731835,-0.36332607,0.45633316,-0.336051,0.7570926,-0.16849577,-0.7331054,0.08576015,0.5019158,-0.027129054,0.44430494,0.23189783,0.67259884,-0.41835308,0.37183762,-0.3729701,2.5328739,0.83542186,
23.247766,3.359134,0.05772026,70.50218,67.21696,-1.7075708,21.201956,0.5047448,0.43556875,0.24518603,0.07022132,-1.3371277,0.49933553,1.3961762,23.48927,-23.247766,-3.359134,-0.05772037,0.1879559,0.15441814,0.04913763,-0.095225796,0.06723285,-0.06723285,0.0,0.0,0.80964893,-0.17957303,-0.765205,0.19428378,0.48154142,-0.049551725,0.42752028,0.21599352,0.91487825,-0.82645416,-0.07810593,-0.38454533,0.74733007,-0.16975886,-0.7220429,0.0913138,0.4977026,-0.05052328,0.4425001,0.22214621,1.0163789,-0.9357691,-0.072193146,-0.39006472,2.9889853,0.8409914,
23.649927,3.6911237,0.22202435,73.06687,69.60032,-1.4943746,22.188501,0.48558164,0.40184546,0.26065725,0.079797015,-1.3489318,0.45678437,-0.26076823,23.937267,-23.649927,-3.6911237,-0.22202447,0.18264991,0.13907468,0.06055724,-0.101745,0.6137383,-0.6137383,0.0,0.0,0.8010782,-0.18081793,-0.7544081,0.19974874,0.4866024,-0.049796104,0.43187618,0.21859825,0.20324658,-0.009775162,0.1742363,0.10418892,0.73759604,-0.17104933,-0.71091324,0.0969146,0.5010452,-0.051618814,0.4451871,0.2240318,0.13842255,-0.043821335,0.107479095,0.07542372,4.2360134,0.8688388,
24.095716,4.0194607,0.51260334,75.6309,71.95836,-1.3279433,23.243565,0.4612799,0.3815943,0.24119717,0.09480967,-0.8100462,0.18623143,-2.79583,24.434042,-24.095716,-4.0194607,-0.5126034,0.20575598,0.092856005,0.065213025,-0.17164075,1.8487471,-1.8487471,0.0,0.0,0.7920376,-0.18177667,-0.7431012,0.2051375,0.5024817,-0.03834963,0.45227766,0.21555066,0.94363546,0.45785904,0.8160591,-0.12190342,0.7274869,-0.17198859,-0.69940954,0.10238863,0.51097125,-0.037570596,0.46014786,0.21896124,0.8455887,0.56192875,0.59843063,-0.20282269,5.4054055,0.86326927,
24.620024,4.300064,0.8997545,78.21394,74.294426,-1.3446709,24.412111,0.43484706,0.38235503,0.1874718,0.088039264,0.030429363,-0.19023538,-2.621727,25.008911,-24.620024,-4.300064,-0.89975446,0.248077,0.040384598,0.06045714,-0.23718393,2.0988562,-2.0988562,0.0,0.0,0.782375,-0.18268263,-0.7311705,0.21006519,0.5176014,-0.036238432,0.47722816,0.1971072,1.243959,0.08444786,0.9980202,-0.7377386,0.7168993,-0.17279063,-0.68743354,0.107345566,0.5194446,-0.032081604,0.47904015,0.19827753,1.1418325,0.21955967,0.7556915,-0.82734823,5.5267115,0.82428294,
25.188677,4.4919186,1.2575585,80.81504,76.61444,-1.5401717,25.669569,0.40951887,0.38640663,0.11392389,0.07360014,0.16206384,-0.7168931,0.7556921,25.616951,-25.188677,-4.4919186,-1.2575585,0.22258501,0.009145702,0.042534813,-0.21829163,1.2495558,-1.2495558,0.0,0.0,0.7723475,-0.18348771,-0.71888524,0.21460891,0.52493125,-0.032203197,0.4914093,0.18174887,0.85160184,0.16140938,0.5672455,-0.61433315,0.70602876,-0.17346632,-0.6751792,0.11188871,0.52347445,-0.027027726,0.4901743,0.18172562,0.823142,0.20215511,0.4453659,-0.6620765,4.7600565,0.7685881,
25.755451,4.5994062,1.5465157,83.42824,78.934616,-1.8068409,26.950567,0.3784445,0.37249893,0.03406682,0.05748242,-0.55630803,-1.3640212,1.7765921,26.208578,-25.755451,-4.5994062,-1.5465156,0.17429204,-0.0085691605,0.008434285,-0.17387682,0.70859444,-0.70859444,0.0,0.0,0.7621158,-0.18429606,-0.7062918,0.21910566,0.53586435,-0.03233373,0.5037379,0.17987013,0.49886543,-0.005221367,0.493145,-0.075149536,0.69495547,-0.17410648,-0.6626516,0.116373956,0.53286797,-0.025606155,0.5011034,0.17940998,0.45047256,0.05686283,0.4371643,-0.09262562,3.838129,0.73517126,
26.312487,4.641825,1.7853004,85.98796,81.22548,-2.0954776,28.141773,0.34848312,0.3448429,-0.04290615,0.026132781,-1.1062407,-1.6547905,0.5420792,26.778364,-26.312487,-4.641825,-1.7853005,0.16693975,-0.03286453,-0.032935478,-0.16032484,0.97181475,-0.97181475,0.0,0.0,0.7518791,-0.18515465,-0.6935903,0.22354509,0.5392945,-0.0343436,0.50806046,0.17757714,0.21159068,-0.080394745,0.17290115,-0.09171963,0.6838933,-0.17470583,-0.6500759,0.1207861,0.5336278,-0.02397418,0.50302744,0.17648578,0.15448616,0.06527901,0.07696152,-0.116968155,3.134553,0.74631023,
26.88767,4.683133,1.9683253,88.4343,83.43474,-2.4116716,29.213951,0.32886118,0.31880695,-0.08052252,-0.005284611,-1.0414386,-1.8235817,0.17353773,27.36335,-26.88767,-4.6831336,-1.9683253,0.18946418,-0.073476106,-0.07852502,-0.1559864,1.6244631,-1.6244631,0.0,0.0,0.74167144,-0.18599221,-0.68091965,0.22766618,0.5340112,-0.03350258,0.50682545,0.1648438,0.5128283,0.03364086,-0.04940033,-0.5093336,0.67294246,-0.17517233,-0.6376356,0.12484834,0.5238032,-0.01865983,0.49761295,0.16248971,0.63680303,0.212574,-0.21657944,-0.5598426,2.591101,0.79643553,
27.496572,4.780521,2.0757573,90.75731,85.53059,-2.7048652,30.233965,0.30422738,0.29464173,-0.07128814,-0.02566225,-0.9666085,-1.5980818,0.6795734,27.986134,-27.496572,-4.7805214,-2.0757575,0.22002769,-0.12269956,-0.11847707,-0.13899706,1.9689381,-1.9689381,0.0,0.0,0.73155767,-0.1870194,-0.66831034,0.23143393,0.52800834,-0.04108727,0.5043721,0.15070975,0.64908266,-0.30338764,-0.09813309,-0.565362,0.6621957,-0.17574504,-0.6253801,0.12851657,0.51222014,-0.02290845,0.4902196,0.14672905,0.71678275,-0.16994476,-0.2957344,-0.6304264,2.0573535,0.82428294,
28.10648,4.9155316,2.1129806,92.91992,87.466896,-2.919065,31.22713,0.269372,0.2605409,-0.057488468,-0.037078127,-1.3640332,-0.89068025,1.0665786,28.61121,-28.10648,-4.915531,-2.1129806,0.24059327,-0.15955442,-0.14074408,-0.1123326,1.4741945,-1.4741945,0.0,0.0,0.7219882,-0.18838489,-0.6561798,0.23495983,0.50824714,-0.05461991,0.48522234,0.14103591,1.0146364,-0.54130554,-0.7659912,-0.38695335,0.65208685,-0.17662825,-0.61369276,0.13191263,0.48811013,-0.03532827,0.46749353,0.13584256,1.1237376,-0.4967928,-0.90904236,-0.4354596,1.5575719,0.78529656,
28.67646,5.043089,2.1419127,94.838875,89.17538,-3.138583,32.129642,0.2317746,0.21792348,-0.06505042,-0.044690788,-1.704697,-0.12232602,-0.0030994415,29.195202,-28.67646,-5.043089,-2.1419127,0.25276124,-0.17485178,-0.14380223,-0.11241008,0.61189413,-0.61189413,0.0,0.0,0.71345997,-0.18966237,-0.64522547,0.23819616,0.45974422,-0.051099062,0.43817282,0.12945354,1.9432778,0.14083385,-1.8819809,-0.46329498,0.64310294,-0.17741628,-0.6032229,0.13500743,0.43784302,-0.03152132,0.41879416,0.123791695,2.0124993,0.15227795,-1.9479752,-0.48203468,1.1596875,0.7685881,
29.194658,5.1468816,2.2124004,96.46433,90.619064,-3.4676027,32.886612,0.20047134,0.17401339,-0.0852553,-0.05137734,-1.7564034,0.15178561,-1.1165762,29.727314,-29.194658,-5.1468816,-2.2124004,0.26854408,-0.18117073,-0.14000759,-0.14032449,0.25275826,-0.25275826,0.0,0.0,0.70611024,-0.19046706,-0.6357768,0.24104306,0.39603895,-0.0321877,0.3779459,0.113875866,2.6007953,0.75645447,-2.4090767,-0.62310696,0.63539076,-0.17771308,-0.59428585,0.137709,0.37364727,-0.011872053,0.35748243,0.10806322,2.6510696,0.7859707,-2.4524689,-0.62913895,0.86855257,0.8799777,
29.645184,5.246574,2.336243,97.799904,91.81259,-3.8031926,33.47844,0.15933748,0.1252447,-0.08760594,-0.045026608,-1.9507474,0.42902708,-0.9985697,30.196383,-29.645184,-5.246574,-2.3362427,0.2765616,-0.18014479,-0.12928191,-0.16528873,0.041037798,0.041037798,0.0,0.0,0.69990927,-0.19087894,-0.6277899,0.24355291,0.33528402,-0.01647532,0.31947613,0.10039389,2.4810827,0.6284952,-2.338791,-0.539279,0.62890846,-0.17762038,-0.58681834,0.1400752,0.31335902,0.003708005,0.29870033,0.094648,2.490957,0.6232023,-2.351284,-0.5366087,0.67931485,0.9913673,
30.003876,5.3728147,2.4961581,98.81191,92.73058,-3.9895663,33.895664,0.08682743,0.06342018,-0.05753675,-0.014366808,-2.4729812,0.78290224,0.27059376,30.583174,-30.003876,-5.3728147,-2.4961581,0.26074854,-0.17556718,-0.10970935,-0.15852389,0.18310428,0.18310428,0.0,0.0,0.69505197,-0.19100583,-0.62143874,0.24582084,0.26980582,-0.0050753355,0.25404692,0.09071708,2.6846473,0.45599937,-2.6171684,-0.38707256,0.62385035,-0.17730188,-0.5809751,0.1422014,0.24904732,0.012739897,0.23372889,0.08504748,2.651802,0.36127567,-2.5988579,-0.3840208,0.5725654,0.95238096,
30.232725,5.5323997,2.6675565,99.46506,93.2998,-4.079044,34.23166,0.05172752,-0.014371693,-0.021067075,0.0450041,-3.1116748,0.65382063,2.1060798,30.850298,-30.232725,-5.5323997,-2.6675565,0.214651,-0.16170773,-0.09336384,-0.10587189,0.55437803,0.55437803,0.0,0.0,0.6918753,-0.19069687,-0.61713433,0.24793415,0.19220607,0.012358427,0.17217636,0.0845325,3.3573735,0.6973505,-3.2748222,-0.24738312,0.6205381,-0.17664441,-0.5771266,0.14418443,0.17515971,0.026298761,0.15393972,0.079321265,3.2454133,0.5423546,-3.1915665,-0.22904873,0.53859967,0.87440825,
30.291998,5.6786146,2.8601105,99.79707,93.51825,-4.213125,34.58385,0.13563803,-0.1004644,-0.0106790075,0.09050159,-3.4437084,0.86553603,1.7243173,30.952093,-30.291998,-5.6786146,-2.8601108,0.16022278,-0.12879242,-0.071725436,-0.06276396,1.3166124,1.3166124,0.0,0.0,0.69042903,-0.19009575,-0.61484605,0.2500404,0.12670545,0.024044514,0.09153128,0.08425057,3.2595148,0.46744347,-3.2258034,-0.011277199,0.61896986,-0.17579466,-0.5751948,0.14618787,0.11639868,0.033990145,0.077273846,0.08013785,3.0822022,0.30765533,-3.0666351,0.032663345,0.53859967,1.1250348,
30.262741,5.790555,3.001283,99.857285,93.49561,-4.2923,34.808376,0.16908175,-0.14781013,-0.011973634,0.08122459,-1.8938291,0.4484044,1.3907417,30.957579,-30.262741,-5.790555,-3.001283,0.13537703,-0.11781805,-0.060515326,-0.027995415,0.4389748,0.4389748,0.0,0.0,0.6902819,-0.18972795,-0.6140123,0.251955,0.084815815,0.0147122145,0.03334999,0.076583624,2.376867,-0.37329197,-2.3272514,-0.30667782,0.6187648,-0.17524204,-0.5746771,0.1480079,0.07885048,0.022104979,0.020706654,0.07280111,2.3306417,-0.47540665,-2.2626877,-0.29346943,0.52889514,2.6677806,
30.17648,5.9153585,3.0966449,99.61459,93.25196,-4.1820903,34.780018,0.20205991,-0.18799591,0.0053669717,0.07387111,-1.6074312,0.01971975,0.93517125,30.90632,-30.17648,-5.915358,-3.0966449,0.13474196,-0.120546296,-0.06002233,-0.0046161343,0.109129846,-0.109129846,0.0,0.0,0.6913378,-0.18956494,-0.6145434,0.2536722,0.07219333,0.006520152,-0.021243095,0.06868839,2.230641,-0.3276825,-2.1837234,-0.31580925,0.61984867,-0.17491844,-0.5755233,0.14962889,0.07427945,0.012943745,-0.033848286,0.06483972,2.2355504,-0.36644936,-2.1821976,-0.3184557,0.5240429,6.972988,
30.019787,6.059731,3.1631079,99.05753,92.747696,-3.972043,34.56128,0.24636912,-0.23401278,0.024455776,0.073059395,-1.8406749,0.036168396,0.7481677,30.788198,-30.019787,-6.0597305,-3.1631079,0.13339119,-0.11874251,-0.05911812,0.014088059,0.07215142,0.07215142,0.0,0.0,0.6937273,-0.18945989,-0.6166315,0.2552021,0.10362951,0.0042021275,-0.08352518,0.06119609,2.5109572,-0.092720985,-2.4912834,-0.29969215,0.62234837,-0.17467324,-0.57791525,0.15106516,0.112030886,0.009807944,-0.095677376,0.057450533,2.493919,-0.12543201,-2.4731636,-0.2955675,0.5434519,13.7900305,
29.798725,6.1912117,3.1989908,98.2317,92.0085,-3.7304976,34.205063,0.28382117,-0.27528292,0.031668514,0.061407436,-1.6508055,0.40752783,0.56637675,30.602755,-29.798725,-6.1912117,-3.1989908,0.13003227,-0.11711675,-0.048929926,0.028247477,0.065030456,0.065030456,0.0,0.0,0.6973284,-0.18944603,-0.62012017,0.2565698,0.14988801,0.0005543232,-0.1395464,0.054707527,2.260543,-0.14591217,-2.2408485,-0.25954247,0.62613964,-0.1745592,-0.5816984,0.15233812,0.15972869,0.0045615435,-0.15132666,0.05091846,2.2510567,-0.20985603,-2.2259712,-0.26128292,0.6647581,19.337233,
29.544268,6.313187,3.1928995,97.20109,91.10551,-3.4333282,33.70532,0.3076064,-0.30107337,0.042126626,0.04692412,-1.0316181,0.38893476,0.66244566,30.37951,-29.544268,-6.3131876,-3.1928995,0.1358661,-0.122125484,-0.039206557,0.04480862,0.20034939,-0.20034939,0.0,0.0,0.7017786,-0.18946296,-0.6246236,0.25776416,0.18636587,-0.00067710876,-0.18013716,0.047774315,1.6478816,-0.04925728,-1.6236305,-0.2773285,0.63085926,-0.17451677,-0.5865036,0.15343018,0.1971169,0.0016975403,-0.19220829,0.043682456,1.6646298,-0.11456013,-1.6352654,-0.28944016,1.0044155,22.110832,
29.278461,6.4236183,3.1883988,96.03275,90.09058,-3.1460903,33.107063,0.31762436,-0.3113764,0.04179352,0.046725616,-0.41212082,0.30353144,0.063385665,30.14394,-29.278461,-6.4236183,-3.1883988,0.13667552,-0.12461198,-0.03161827,0.04639326,0.09945989,-0.09945989,0.0,0.0,0.70672196,-0.18919155,-0.62985,0.2587498,0.21301702,0.01085639,-0.20905495,0.03942609,1.2893118,0.46133995,-1.1567116,-0.33392906,0.63613534,-0.17420688,-0.5920378,0.15430945,0.22448593,0.012395382,-0.22136688,0.035170913,1.28817,0.42791367,-1.1663437,-0.34046173,1.5236062,25.580618,
28.992685,6.4877944,3.19918,94.75635,88.97675,-2.9208024,32.455685,0.32568172,-0.3207096,0.01870205,0.053517908,-0.37332773,0.39432472,0.21383166,29.881466,-28.992685,-6.4877944,-3.1991796,0.13262202,-0.12015892,-0.021760153,0.051739052,0.17812252,0.17812252,0.0,0.0,0.7120717,-0.18854247,-0.6357071,0.25956574,0.23796733,0.025963187,-0.2342844,0.03263712,1.207199,0.6042719,-1.0091782,-0.27155876,0.64185774,-0.17354968,-0.5981894,0.15502036,0.24909334,0.026288033,-0.24606466,0.028436184,1.1650529,0.555706,-0.9879112,-0.26938915,2.0379446,33.405735,
28.685791,6.514016,3.1815565,93.380035,87.77066,-2.6614993,31.765676,0.33950394,-0.335608,-0.004062642,0.051124252,-0.5959368,-0.07328965,0.93204707,29.587656,-28.685791,-6.5140166,-3.1815565,0.14577721,-0.12273288,-0.023592394,0.07504023,0.10295838,-0.10295838,0.0,0.0,0.7178828,-0.18800536,-0.6420945,0.26023912,0.25780916,0.021484494,-0.2554965,0.026935339,0.8966803,-0.17914772,-0.84848404,-0.22807121,0.6480827,-0.17302099,-0.60486966,0.15558793,0.26900527,0.021147728,-0.26721,0.022702813,0.90015095,-0.20561218,-0.84581375,-0.22933483,2.4115677,47.93651,
28.364626,6.562628,3.136679,91.890594,86.4688,-2.2741265,31.013786,0.3542016,-0.35126668,0.0033917972,0.045376167,-0.62634706,-0.43555707,0.39357334,29.282398,-28.364626,-6.5626273,-3.136679,0.15855935,-0.12941238,-0.03448132,0.08487956,0.2671802,-0.2671802,0.0,0.0,0.72420275,-0.18776637,-0.64902914,0.2607194,0.27821442,0.009559393,-0.2773857,0.019210577,1.0438524,-0.47700405,-0.8755684,-0.30899048,0.65486926,-0.17277041,-0.6121113,0.15596119,0.29022193,0.010023117,-0.28966427,0.0149303675,1.049466,-0.44498444,-0.8981705,-0.31089783,2.8094523,63.620163,
28.032873,6.6516533,3.095501,90.27029,85.0637,-1.8020179,30.160332,0.3617837,-0.35836974,0.02516685,0.042722486,-0.28412223,-0.15419737,-0.398885,28.977036,-28.032873,-6.651654,-3.0955007,0.15313469,-0.12794313,-0.038336255,0.07490744,0.05877018,0.05877018,0.0,0.0,0.7309768,-0.18740657,-0.65661937,0.26087725,0.30401587,0.0143921375,-0.30360937,0.006314516,1.1847998,0.19330978,-1.0489464,-0.51584244,0.6621677,-0.17237899,-0.6200086,0.15601584,0.31628802,0.015656948,-0.3158927,0.0021862984,1.1879945,0.22535324,-1.0491371,-0.50976276,3.4159832,68.3932,
27.689173,6.7482314,3.0497696,88.55616,83.56648,-1.3671288,29.274014,0.3624468,-0.35889882,0.035508275,0.03603456,-0.021163225,0.20717502,-0.14710337,28.662346,-27.689173,-6.7482314,-3.0497694,0.14356396,-0.1201563,-0.03315688,0.07122985,0.311473,0.311473,0.0,0.0,0.73803705,-0.18679819,-0.66472167,0.26067263,0.32510734,0.024335384,-0.3240919,-0.00818491,1.0797303,0.39772987,-0.8193016,-0.57997704,0.66979855,-0.17174858,-0.62839925,0.15571408,0.33678892,0.025216341,-0.3356266,-0.012070537,1.0461866,0.38237572,-0.78935623,-0.5702734,3.799311,62.35032,
27.3329,6.7931027,2.9770322,86.803314,82.01209,-1.0611264,28.42018,0.36114997,-0.36077523,0.010418622,0.012727072,-0.07505655,0.24047591,0.10606259,28.321306,-27.3329,-6.7931027,-2.9770322,0.14021091,-0.11603355,-0.027144982,0.07388142,0.16491026,0.16491026,0.0,0.0,0.74523443,-0.18620126,-0.6730282,0.26026243,0.3335208,0.023877025,-0.33226013,-0.016407967,0.46398032,-0.018334389,-0.32672882,-0.32892227,0.6775899,-0.17114723,-0.6369826,0.15520917,0.34476832,0.02405405,-0.34333467,-0.020196438,0.45041418,-0.046491623,-0.3083229,-0.32503605,3.6537435,53.751045,
26.94934,6.7186613,2.8955255,84.99811,80.41304,-0.9014643,27.524694,0.36652094,-0.36169237,-0.054269776,-0.023895819,-0.036685467,0.5688697,-0.5306999,27.924746,-26.94934,-6.718661,-2.8955255,0.1190424,-0.10163678,-0.012923239,0.06061392,0.5758706,0.5758706,0.0,0.0,0.75261486,-0.18559018,-0.6815757,0.25969213,0.34353265,0.024443269,-0.34190178,-0.02281189,0.46353808,0.022649765,-0.3856659,-0.25615692,0.6855659,-0.17055663,-0.64577436,0.15455244,0.35343993,0.023623705,-0.3516698,-0.026268959,0.41286284,-0.017213821,-0.33340454,-0.24290085,3.2898247,46.677807,
26.525148,6.562757,2.8189971,83.09103,78.73547,-0.78501475,26.5373,0.37504196,-0.36073935,-0.09382555,-0.041477107,0.038120747,0.65358293,-0.32473922,27.469984,-26.525148,-6.562757,-2.818997,0.09114115,-0.07442625,0.0034163352,0.05249544,1.0884213,1.0884213,0.0,0.0,0.7603325,-0.18473193,-0.6906724,0.25874949,0.36742303,0.03432989,-0.36386728,-0.0377059,1.1328267,0.3954649,-0.87862015,-0.59576035,0.6938864,-0.16975424,-0.65504706,0.1535421,0.374481,0.03209591,-0.37090778,-0.040413737,1.0134721,0.33888817,-0.7695198,-0.56579113,3.231598,43.336117,
26.056385,6.409145,2.7325716,81.05634,76.95283,-0.5654442,25.45729,0.3808621,-0.36878014,-0.08338371,-0.045872748,-0.32163143,0.34960884,0.17162368,26.971823,-26.056385,-6.409145,-2.7325716,0.07799957,-0.05207204,0.012156556,0.05678603,0.8941683,0.8941683,0.0,0.0,0.7684673,-0.1837218,-0.7003966,0.25735754,0.39500472,0.040405393,-0.388968,-0.05567789,1.2585387,0.24302006,-1.0040283,-0.7188797,0.70264596,-0.16882658,-0.664887,0.1520993,0.3995335,0.037106276,-0.39359808,-0.057712197,1.1587511,0.20041466,-0.90761185,-0.6919384,3.6343346,44.62267,
25.545362,6.2614985,2.6180348,78.86507,75.038666,-0.27074048,24.265709,0.40348643,-0.39035845,-0.07477529,-0.06949979,-0.8631325,0.0895663,-0.13295531,26.431536,-25.545362,-6.2614994,-2.618035,0.071824715,-0.045753162,0.014395714,0.053462148,0.25275514,0.25275514,0.0,0.0,0.7771034,-0.18268816,-0.7107609,0.2556046,0.42248747,0.041345358,-0.41457176,-0.07011771,1.176398,0.03759861,-1.0241508,-0.57759285,0.71195054,-0.16787824,-0.6753519,0.15030044,0.42642605,0.037933588,-0.41859627,-0.07195413,1.1512959,0.0330925,-0.9999275,-0.56967735,3.9788442,48.070175,
24.991058,6.1018014,2.4774218,76.513,72.968155,-0.06740674,23.019203,0.43823668,-0.4188338,-0.07542173,-0.10460022,-1.1390138,0.21609098,-0.5540171,25.844198,-24.991058,-6.1018014,-2.4774218,0.06382749,-0.04596629,0.019797988,0.03961172,0.008525103,-0.008525103,0.0,0.0,0.7861772,-0.18152785,-0.72168475,0.25356132,0.4469489,0.04641235,-0.4369545,-0.08173108,1.0288103,0.20267963,-0.89530945,-0.46453476,0.7217412,-0.16680506,-0.6863821,0.14820923,0.45111445,0.042927265,-0.4412079,-0.08364856,1.0376756,0.19974709,-0.9044647,-0.46777725,3.741084,49.557228,
24.383307,5.933505,2.3430417,74.02027,70.73123,-0.02350174,21.819544,0.46190003,-0.4414721,-0.064324155,-0.11965118,-0.90553284,0.74964446,-0.6107795,25.204008,-24.383307,-5.9335046,-2.3430414,0.055278998,-0.03127237,0.0385391,0.024342231,0.58775675,0.58775675,0.0,0.0,0.7955472,-0.18007775,-0.73309374,0.2510796,0.47061953,0.05800426,-0.4563594,-0.09926915,1.1443818,0.46367645,-0.7761955,-0.7015228,0.7318623,-0.16547795,-0.69786465,0.1456858,0.4732484,0.053084493,-0.45930147,-0.10093689,1.080321,0.4062891,-0.72374344,-0.6915331,3.1248484,48.370926,
23.712618,5.7225695,2.2216492,71.41555,68.353386,-0.114935845,20.687737,0.48332235,-0.46101582,-0.076628074,-0.123260066,-0.7817483,0.759273,-0.1683756,24.494322,-23.712618,-5.722569,-2.221649,0.06137274,-0.007254292,0.057520926,0.020132842,0.96072316,0.96072316,0.0,0.0,0.80510885,-0.17838372,-0.7448573,0.24812709,0.4898467,0.067760944,-0.4705429,-0.11810005,1.0205629,0.39026737,-0.56734085,-0.7532358,0.7421824,-0.16395321,-0.70964,0.14270604,0.48967463,0.06098926,-0.47101498,-0.11919081,0.9233827,0.31619072,-0.4685402,-0.7301569,2.5377262,50.91061,
23.011065,5.4295697,2.0687175,68.710175,65.863785,-0.3148805,19.56912,0.5113515,-0.47606215,-0.13274008,-0.13124505,-0.60185313,-0.12822837,0.93884534,23.733288,-23.011065,-5.4295707,-2.0687175,0.06979685,-0.004489,0.054315217,0.043603975,0.11061167,0.11061167,0.0,0.0,0.8148206,-0.1764854,-0.75690275,0.24471137,0.50653875,0.07593274,-0.48181772,-0.13662875,0.9271137,0.32687187,-0.45099258,-0.741148,0.75268877,-0.16223647,-0.72168165,0.13926691,0.5056096,0.068669915,-0.48166513,-0.13756514,0.9033574,0.30722618,-0.42600632,-0.73497295,2.1543987,58.852688,
22.293043,5.034843,1.8233927,65.87777,63.25334,-0.607296,18.3991,0.5630637,-0.49702203,-0.20662077,-0.1652807,-0.83839536,-0.53699344,1.5790122,22.927149,-22.293043,-5.0348425,-1.8233929,0.09512423,-0.021781396,0.04089038,0.08307928,0.6916958,-0.6916958,0.0,0.0,0.824715,-0.17461279,-0.7691917,0.24085134,0.5206523,0.07490456,-0.49155712,-0.15440106,0.811683,-0.041127205,-0.38957596,-0.7108927,0.7634491,-0.1605448,-0.7339986,0.13537325,0.5211209,0.06766677,-0.4926777,-0.15574634,0.85120046,-0.040125847,-0.44050217,-0.7272482,2.008831,64.622665,
21.503948,4.529386,1.4602957,62.875717,60.486263,-0.9788554,17.140873,0.64891624,-0.5379561,-0.27230018,-0.23989192,-1.6373634,-0.00042796135,0.80787003,22.02425,-21.503948,-4.5293865,-1.4602957,0.113456555,-0.023136614,0.04087968,0.10327603,0.05420871,-0.05420871,0.0,0.0,0.8349127,-0.1732924,-0.7816961,0.2366437,0.53036994,0.052815676,-0.50017595,-0.16830564,1.0994836,-0.8835554,-0.34475327,-0.55618286,0.7745418,-0.15942304,-0.7465279,0.13113093,0.5310206,0.044870377,-0.50117254,-0.16969264,1.1216682,-0.9118557,-0.33979416,-0.5578518,2.1252851,67.245895,
20.604782,3.882293,0.9879054,59.704056,57.567844,-1.4989748,15.756606,0.76266915,-0.58561575,-0.34810126,-0.3428468,-1.9063854,0.5252063,-0.33562303,20.990599,-20.604782,-3.882293,-0.9879055,0.10927077,-0.004448545,0.05400984,0.09488545,0.7475227,0.7475227,0.0,0.0,0.8453756,-0.17262349,-0.7943102,0.2322333,0.5351865,0.026756525,-0.50456524,-0.17641604,1.1057116,-1.042366,-0.17557144,-0.32441616,0.78587025,-0.15898007,-0.7591212,0.12669809,0.53432083,0.017718673,-0.5037308,-0.17731369,1.1326711,-1.0860682,-0.102329254,-0.304842,2.4115677,73.51713,
19.62718,3.1823776,0.5019816,56.45153,54.55936,-2.1198668,14.337285,0.81597555,-0.6132854,-0.3654247,-0.3951732,-1.1067867,0.81079364,-1.3115853,19.88984,-19.62718,-3.1823776,-0.5019816,0.098958746,0.020480964,0.07427968,0.06209582,0.99718034,0.99718034,0.0,0.0,0.8557018,-0.1721173,-0.8067307,0.22756717,0.5311079,0.020247698,-0.49681902,-0.18664539,0.57551134,-0.2603531,0.3098488,-0.40917397,0.79702216,-0.15872455,-0.7714667,0.12202488,0.52811426,0.0102210045,-0.4938197,-0.18692851,0.6285081,-0.29990673,0.3964424,-0.384593,2.6541803,81.75439,
18.579048,2.6102123,0.11902673,53.14534,51.45581,-2.6116817,13.034793,0.7683092,-0.6264991,-0.25938034,-0.36127514,-0.52854776,1.1845481,-1.6751904,18.761887,-18.579048,-2.6102123,-0.11902678,0.12473244,0.0659974,0.103893384,0.020216059,1.8206574,1.8206574,0.0,0.0,0.8657226,-0.1713312,-0.8189821,0.2222375,0.53534436,0.031443834,-0.49005747,-0.21318674,1.1835644,0.44784546,0.27046204,-1.0616541,0.807831,-0.15823041,-0.78353727,0.11671913,0.52777946,0.019765496,-0.48282385,-0.21223009,1.1676822,0.38177967,0.4398346,-1.012063,2.7560775,85.36898,
17.443771,2.204242,-0.21823516,49.73283,48.22027,-2.8705142,11.828784,0.73787,-0.65266526,-0.13100153,-0.31830603,-1.0466456,0.77177674,0.16843468,17.583841,-17.443771,-2.2042422,0.21823516,0.16483529,0.10676499,0.1231878,0.024426926,1.6307034,1.6307034,0.0,0.0,0.8755225,-0.17021342,-0.83115166,0.21622655,0.5447622,0.044711232,-0.4867816,-0.24043798,1.219433,0.5306959,0.13103485,-1.0900497,0.8183829,-0.15745924,-0.7954173,0.110763356,0.53246784,0.030846596,-0.4752016,-0.23823082,1.1709331,0.44324398,0.30488968,-1.0400295,2.8725314,84.87886,
16.245094,1.8863311,-0.5890838,46.232754,44.897633,-2.956793,10.6267395,0.7551365,-0.68705404,-0.07234143,-0.30488443,-1.3755512,-0.14762253,1.3318567,16.364851,-16.245094,-1.8863311,0.58908385,0.17619707,0.115904406,0.11949724,0.057723343,0.36557674,0.36557674,0.0,0.0,0.88497967,-0.16880578,-0.8429783,0.20995522,0.538413,0.056305528,-0.47306538,-0.2508533,0.83046126,0.46377182,0.54864883,-0.41661263,0.8285648,-0.15641838,-0.80692035,0.1045585,0.52444804,0.04163444,-0.46012163,-0.24819434,0.8419547,0.4315138,0.603199,-0.3985405,3.1248484,84.210526,
15.049141,1.6056234,-0.9765503,42.701424,41.548317,-2.9318664,9.410259,0.7655569,-0.70426095,-0.06366159,-0.2933275,-0.6882763,-0.68745404,0.7673675,15.166025,-15.049141,-1.6056235,0.9765503,0.16038746,0.09665325,0.10231089,0.07690753,0.7700461,-0.7700461,0.0,0.0,0.8937769,-0.16700149,-0.85414106,0.20344703,0.52187216,0.07217169,-0.44651031,-0.26032746,1.2940887,0.6346464,1.0622025,-0.37896633,0.83811724,-0.15495318,-0.81780505,0.098106526,0.50951195,0.058608055,-0.4353881,-0.25807887,1.2633643,0.6789446,0.98934174,-0.39538145,3.4159832,85.15734,
13.920708,1.4734114,-1.3252083,39.208435,38.231304,-2.7131424,8.264852,0.7369559,-0.69346464,0.017180176,-0.24882853,0.43185234,-0.7072738,0.095107555,14.061053,-13.920708,-1.4734117,1.3252084,0.13288504,0.06488617,0.084629044,0.07928522,1.2706834,-1.2706834,0.0,0.0,0.9015527,-0.16471192,-0.8642968,0.19661725,0.49803942,0.09158254,-0.4062295,-0.27319133,1.8610984,0.77643394,1.6112328,-0.514555,0.84671783,-0.15295868,-0.8277663,0.09131066,0.48889807,0.07978022,-0.3984499,-0.27183473,1.7897102,0.84688663,1.4775276,-0.5502343,3.5566986,88.91673,
12.856634,1.5051312,-1.6775213,35.77043,34.968285,-2.3263133,7.164581,0.72919583,-0.6831347,0.11044714,-0.22990216,0.41319847,-0.7533765,0.24299413,13.052684,-12.856634,-1.5051314,1.6775213,0.11233541,0.031685486,0.06579463,0.08536007,1.3280272,-1.3280272,0.0,0.0,0.908349,-0.16220254,-0.8733687,0.18977702,0.46542,0.100375414,-0.36287546,-0.27360916,1.7695476,0.3517151,1.7341614,-0.016713142,0.85437965,-0.15070057,-0.83672994,0.08448031,0.45973843,0.09032428,-0.35854578,-0.27321398,1.6518683,0.42176247,1.5961647,-0.05517006,3.5566986,92.4088,
11.808306,1.6063821,-2.0644853,32.372158,31.746746,-1.8930224,6.0429387,0.7446709,-0.6870724,0.13968974,-0.25090456,-0.15750885,-0.7819128,-0.10564983,12.094571,-11.808306,-1.606382,2.0644853,0.09598062,0.015202243,0.04624681,0.08271883,0.6593297,-0.6593297,0.0,0.0,0.914345,-0.15975219,-0.88145924,0.18312755,0.43021235,0.09801388,-0.32362223,-0.26597857,1.6023079,-0.09446144,1.5701294,0.30522346,0.8612251,-0.1484478,-0.8447569,0.07783159,0.42654425,0.0901109,-0.3210783,-0.26594877,1.5266386,-0.008535385,1.4986992,0.2906084,3.5615509,93.31663,
10.77782,1.7041334,-2.439157,29.04983,28.59097,-1.511207,4.9158216,0.74339,-0.68414915,0.12178826,-0.2640764,0.11693001,-0.55251163,-0.9174904,11.181008,-10.77782,-1.7041333,2.439157,0.06836061,0.0068827528,0.03243402,0.059781566,0.3327796,-0.3327796,0.0,0.0,0.91949034,-0.157246,-0.88855815,0.17663674,0.3976053,0.10024786,-0.28395653,-0.25963247,1.6092888,0.08935928,1.586628,0.25384426,0.86719537,-0.14608186,-0.8518209,0.071337946,0.39530224,0.094637275,-0.2825594,-0.25974572,1.5710746,0.18105507,1.5407562,0.24812222,3.585812,95.789474,
9.803824,1.8227015,-2.7344677,25.872847,25.555746,-1.1655877,3.8664618,0.7100999,-0.65805227,0.1255191,-0.23548675,1.0438752,-0.25557578,-1.2426001,10.339949,-9.803824,-1.8227015,2.7344677,0.038777113,-0.0008371337,0.026044626,0.028716564,0.30879545,-0.30879545,0.0,0.0,0.92363083,-0.15443322,-0.89457357,0.17024224,0.36875287,0.11251092,-0.2406168,-0.25578022,1.8082277,0.49052238,1.7335892,0.15408993,0.8721485,-0.14336403,-0.8578305,0.06493545,0.36768314,0.10871351,-0.24038553,-0.2560997,1.7844073,0.5630493,1.6869545,0.14584064,3.5324373,98.69117,
8.890189,1.9228953,-2.933526,22.887333,22.676662,-0.90297556,2.9637213,0.6619745,-0.62547696,0.10366197,-0.1903759,1.3030124,-0.1974073,-0.9951123,9.557121,-8.890189,-1.9228951,2.9335258,0.021799402,-0.0038560694,0.021109443,0.0038387566,0.12075742,-0.12075742,0.0,0.0,0.92679465,-0.15148136,-0.8994858,0.16409421,0.33619508,0.11807442,-0.19649029,-0.24592102,1.8222208,0.2225399,1.7650604,0.39436817,0.8760868,-0.14047126,-0.86275196,0.058778074,0.3358617,0.1157105,-0.19685745,-0.24629518,1.806557,0.27987957,1.7411232,0.39218068,3.3674607,96.97577,
8.008042,1.8476954,-3.0912802,20.077513,19.936075,-0.844896,2.223866,0.6306665,-0.60741687,-0.027794372,-0.16736916,0.7224035,-0.31849092,-0.07907742,8.780588,-8.008042,-1.8476952,3.0912805,0.014006966,-0.0044587706,0.01314717,0.0018618208,0.024108049,-0.024108049,0.0,0.0,0.92925376,-0.14897518,-0.90348,0.15824923,0.3003947,0.100247264,-0.15976667,-0.23379922,1.7033468,-0.7130861,1.4689445,0.48487186,0.8792688,-0.13800141,-0.8667573,0.05292539,0.30039072,0.0987941,-0.16021252,-0.23410738,1.686444,-0.67665577,1.4657974,0.48751235,3.2655635,93.656364,
7.1814394,1.6432682,-3.308589,17.415619,17.320923,-0.80261314,1.6264199,0.6142983,-0.57933,-0.13518816,-0.1531772,1.1234736,-0.724004,2.2173812,8.0759,-7.1814394,-1.6432681,3.308589,0.06035477,-0.018311052,-0.00495293,0.057296354,0.5540913,-0.5540913,0.0,0.0,0.9311857,-0.14713727,-0.90678334,0.15232033,0.2812598,0.07351637,-0.13213396,-0.23715615,1.5436977,-1.0692358,1.1053085,-0.13427734,0.88194144,-0.13620305,-0.8700932,0.04698103,0.28198752,0.07193446,-0.13343811,-0.2377744,1.5240768,-1.0743856,1.0709763,-0.14668107,3.4256878,92.31412,
6.443633,1.4278191,-3.632892,14.941422,14.886688,-0.6261848,1.1137836,0.5707282,-0.5272827,-0.15894051,-0.14980496,2.0818925,-0.6475097,2.8838246,7.5337224,-6.443633,-1.427819,3.6328914,0.13579491,-0.035370134,-0.021140672,0.12939197,0.6823633,-0.6823633,0.0,0.0,0.93261844,-0.14583836,-0.9094568,0.14627588,0.2694285,0.051956177,-0.106937885,-0.2417779,1.3392801,-0.8624077,1.007843,-0.18486977,0.88414496,-0.13496704,-0.8728245,0.04090992,0.27083835,0.049440265,-0.109250546,-0.24284437,1.3367015,-0.8997679,0.9675026,-0.20279884,3.8720946,93.21638,
5.7690115,1.2111558,-3.932766,12.689028,12.669988,-0.3234745,0.61498433,0.5225537,-0.4711855,-0.15793061,-0.16156878,2.2438884,0.17495751,-1.3096017,7.086257,-5.7690115,-1.2111558,3.9327655,0.100549415,-0.02207867,-0.016766734,0.09665193,0.53165853,0.53165853,0.0,0.0,0.93360746,-0.14491385,-0.911544,0.14039357,0.2523896,0.03698051,-0.08348942,-0.23529232,1.1427433,-0.5990267,0.9379387,0.25942326,0.8858508,-0.13408685,-0.87494373,0.035011943,0.2531468,0.035207868,-0.084769726,-0.23591906,1.1660749,-0.5692959,0.9792328,0.2770126,4.2069,98.07853,
5.131751,0.9445015,-4.1770554,10.7038355,10.70321,0.0031735706,0.11570359,0.5034731,-0.43022442,-0.18934795,-0.18038693,1.6384435,0.21175548,-2.3643525,6.6839166,-5.131751,-0.94450194,4.1770554,0.03939472,-0.003291268,-0.011472847,0.037543114,0.7514961,0.7514961,0.0,0.0,0.93425715,-0.14440383,-0.9130587,0.13530658,0.21328594,0.020400882,-0.06058693,-0.20347953,1.7024506,-0.6631851,0.91609955,1.2725115,0.8870828,-0.13358095,-0.87645686,0.029925056,0.21324876,0.020235777,-0.06052494,-0.2034755,1.7272208,-0.5988836,0.9697914,1.2977421,4.158377,103.82066,
4.5288386,0.6069172,-4.3772283,8.990202,8.978563,0.32024974,-0.32644978,0.5021987,-0.3990975,-0.24002013,-0.1879231,1.2450767,-0.01234781,-1.5887678,6.327626,-4.5288386,-0.60691696,4.3772283,0.014128269,0.0074878503,-0.011781543,-0.0021760808,0.4311647,0.4311647,0.0,0.0,0.9347277,-0.144481,-0.914123,0.13122621,0.16870381,-0.0030869246,-0.04257202,-0.1632148,1.9989846,-0.93951225,0.7205963,1.610589,0.88799435,-0.13362509,-0.877502,0.025854697,0.1681054,-0.0017654896,-0.041806698,-0.16281433,1.9950976,-0.88005066,0.7487297,1.6264468,4.0273666,103.30827,
3.9886744,0.23755705,-4.5237913,7.5370955,7.4782104,0.70491576,-0.622316,0.47517926,-0.3584689,-0.26384115,-0.16638279,1.6251445,-0.033939034,-0.79603416,6.0357804,-3.9886744,-0.23755692,4.5237913,0.026919646,0.008818105,-0.012630018,-0.022076935,0.053210184,0.053210184,0.0,0.0,0.93507403,-0.14519349,-0.9148403,0.1278655,0.1403798,-0.028499365,-0.028691292,-0.13442874,1.6332074,-1.0164976,0.5552292,1.1514425,0.88869435,-0.13428408,-0.8782021,0.022505525,0.13937746,-0.026359558,-0.028002262,-0.13396688,1.6137441,-0.98376274,0.5521774,1.1538982,3.8915038,94.15205,
3.562087,-0.037497174,-4.610427,6.4149127,6.235788,1.3387026,-0.6884224,0.36753282,-0.2865355,-0.19896048,-0.115725964,2.8773355,0.015375279,0.008671135,5.8263116,-3.5620873,0.037497234,4.610427,0.025676709,0.005609934,-0.012245636,-0.021860156,0.12832682,-0.12832682,0.0,0.0,0.93524194,-0.14661023,-0.9152062,0.12482204,0.13507712,-0.056669712,-0.014636517,-0.12173802,1.3577391,-1.1268139,0.562191,0.5076289,0.88918275,-0.13564855,-0.87855923,0.01947055,0.13386805,-0.05457878,-0.014286041,-0.121399015,1.3519825,-1.1287689,0.54864883,0.5027145,3.6197777,82.55639,
3.2763286,-0.13698135,-4.643692,5.6877885,5.2365646,2.152282,-0.5449865,0.21542664,-0.19160487,-0.07842317,-0.059548438,3.7972252,-0.011409521,0.32074994,5.6848016,-3.2763286,0.13698108,4.643692,0.019336551,0.005029396,-0.012530874,-0.013841407,0.023221523,-0.023221523,0.0,0.0,0.9352039,-0.14843279,-0.91532135,0.121494144,0.15184149,-0.07290244,-0.004606247,-0.13311595,0.888653,-0.64930916,0.40121078,-0.45511723,0.88949347,-0.13742544,-0.878665,0.016150726,0.15067713,-0.07107556,-0.0042295456,-0.13279296,0.8971946,-0.6598711,0.40225983,-0.45575798,3.231598,80.41214,
3.0785468,-0.16315857,-4.6493235,5.181894,4.4031954,2.7125096,-0.3258582,0.13192876,-0.12520558,-0.029406283,-0.02939436,2.6559715,-0.04398249,0.16422689,5.5785556,-3.0785468,0.1631584,4.6493235,0.02044365,0.011720471,-0.013630437,-0.009735735,0.267643,0.267643,0.0,0.0,0.9351062,-0.15009424,-0.9154119,0.117968276,0.15595055,-0.06645799,-0.0036215782,-0.14103472,0.41028294,0.25777817,0.03938675,-0.316751,0.8897494,-0.13904206,-0.87872726,0.012639344,0.15464626,-0.06466508,-0.0024914742,-0.14045529,0.4056134,0.25641918,0.06952286,-0.30649304,2.8725314,89.29546,
2.8721933,-0.2582763,-4.66131,4.5279226,3.6517751,2.669259,-0.20415697,0.14518254,-0.11861421,-0.07842946,-0.02928242,0.2636546,-0.0432498,0.20629893,5.481242,-2.8721933,0.25827622,4.66131,0.02906104,0.024640415,-0.014711682,-0.0045782616,0.5167977,0.5167977,0.0,0.0,0.9350817,-0.1508906,-0.915635,0.11498904,0.12367571,-0.03185451,-0.008924007,-0.119169354,1.6509928,1.3841391,-0.21209717,0.8746147,0.88998795,-0.13979548,-0.87888676,0.009686816,0.12205246,-0.030136704,-0.006380081,-0.11810113,1.652653,1.381135,-0.15554428,0.8941665,2.726964,97.94486,
2.6409209,-0.3797859,-4.6752915,3.7236133,2.9386172,2.2746675,-0.23603362,0.16468391,-0.1303938,-0.0958948,-0.03037158,-0.47118366,0.023975,0.09393535,5.3830338,-2.6409209,0.37978545,4.6752915,0.033507004,0.030308245,-0.014112307,-0.002229878,0.2267132,0.2267132,0.0,0.0,0.9350385,-0.15053819,-0.9159405,0.11264174,0.095727846,0.0140964985,-0.012221336,-0.09389222,2.1019235,1.8380404,-0.13189316,1.0110855,0.89012796,-0.13940388,-0.8791132,0.00737127,0.09437269,0.0156641,-0.009057522,-0.09262182,2.0991724,1.8320322,-0.107097626,1.0191724,2.8191566,95.49986,
2.438569,-0.41986203,-4.6464214,3.0665245,2.27891,2.032882,-0.27844813,0.11878213,-0.112641424,-0.035359856,-0.013068518,0.71009517,0.15546407,-0.5762896,5.2642317,-2.438569,0.41986176,4.6464214,0.03613459,0.03040312,-0.010225705,-0.016637119,0.0037950277,0.0037950277,0.0,0.0,0.93499875,-0.14981635,-0.9162941,0.110375494,0.09618257,0.028873682,-0.01414299,-0.090649724,0.610012,0.59108734,-0.07686615,0.1296997,0.8902677,-0.13863981,-0.8793914,0.0051359246,0.095145844,0.030562878,-0.011126995,-0.08941382,0.6152041,0.5959511,-0.08277893,0.12831986,3.0180988,83.40852,
2.3031428,-0.35695985,-4.570299,2.629956,1.7046983,1.9897655,-0.2269483,0.079745956,-0.06845443,0.0387988,0.012963841,1.7674798,0.117235035,-0.47137237,5.130255,-2.3031428,0.35695946,4.570299,0.042442422,0.030665405,-0.007294829,-0.028421428,0.010491386,0.010491386,0.0,0.0,0.9349659,-0.14933166,-0.9166467,0.10779679,0.10589798,0.019387603,-0.014104843,-0.10314822,0.62762994,-0.37944317,0.0015258789,-0.49993992,0.8904508,-0.13810968,-0.87967134,0.0025876057,0.104715526,0.021204948,-0.011198521,-0.10193275,0.6252033,-0.37431717,-0.002861023,-0.5007571,3.2267456,74.93734,
2.215128,-0.3107658,-4.5016513,2.1801245,1.2415113,1.7882333,-0.11753379,0.051535938,-0.035699487,0.02407678,0.028316218,1.3101977,-0.09650163,0.6623993,5.0267515,-2.215128,0.31076622,4.5016513,0.03386703,0.030200146,-0.00970737,-0.011861445,0.018610358,-0.018610358,0.0,0.0,0.934902,-0.14903632,-0.9169264,0.10524237,0.10346387,0.011813641,-0.0111866,-0.102176666,0.32698616,-0.3029585,0.11672974,0.03886223,0.89059675,-0.1377778,-0.8798749,6.383378E-05,0.10214501,0.0132751465,-0.0081419945,-0.10095088,0.34220034,-0.31719208,0.12226105,0.039274693,3.3189383,78.59649,
2.1574504,-0.29872513,-4.462445,1.7030509,0.9160396,1.4357067,-0.00011996659,0.03739825,-0.013345303,-0.0038394262,0.034724496,0.89416736,-0.14030352,0.9672924,4.965606,-2.1574504,0.29872507,4.462445,0.03470316,0.02962888,-0.013214958,0.012320865,0.022850633,-0.022850633,0.0,0.0,0.9348209,-0.14879441,-0.91712105,0.1031467,0.08474191,0.009676218,-0.007786751,-0.08382678,0.7513677,-0.0854969,0.13599396,0.73399544,0.8906699,-0.1375126,-0.87998813,-0.0020006443,0.08338088,0.010608435,-0.004529953,-0.08257912,0.75649697,-0.10666847,0.14448166,0.73487043,3.3431995,88.10916,
2.1420338,-0.27403915,-4.432342,1.3817955,0.71797323,1.1763977,0.09980931,0.039179057,0.013541793,0.0070388326,0.03608425,1.0754838,0.10704897,0.17044261,4.9304223,-2.1420338,0.27403903,4.432342,0.032864794,0.026345197,-0.010538734,0.01658193,0.13134733,-0.13134733,0.0,0.0,0.93469924,-0.148541,-0.91723424,0.10138814,0.07121307,0.010136366,-0.004527569,-0.07034242,0.5552109,0.018405914,0.13036728,0.53937435,0.89067334,-0.1372469,-0.8800275,-0.0037317472,0.07007259,0.010627508,-0.0015735626,-0.06924412,0.5463522,0.00076293945,0.118255615,0.5334002,3.4208355,92.548035,
2.1743023,-0.24621509,-4.401715,1.2604514,0.6109758,1.0891507,0.17087272,0.054240875,0.04127668,0.014479619,0.03207256,1.1093954,0.2341166,-0.33125854,4.915619,-2.1743023,0.2462154,4.401715,0.023118291,0.02106183,-0.0046858187,0.008300466,0.21133468,-0.21133468,0.0,0.0,0.93450445,-0.14827225,-0.9172672,0.09967341,0.06943903,0.010750294,-0.0013184547,-0.06858915,0.14832008,0.024557114,0.12836456,0.070130825,0.8906155,-0.13697354,-0.88000274,-0.005425538,0.06863545,0.010934472,0.0009894371,-0.06775163,0.119269155,0.012278557,0.10251999,0.059699416,3.4548013,90.59315,
2.2398043,-0.23819715,-4.3631687,1.2583375,0.5930206,1.0874993,0.22155195,0.06813018,0.06268954,0.0026354128,0.026548017,0.8565146,0.09388463,-0.5524418,4.910265,-2.2398043,0.23819695,4.3631687,0.021213457,0.020351283,-0.0023387028,-0.0055105784,0.028421879,-0.028421879,0.0,0.0,0.9343094,-0.14807205,-0.9172693,0.09811134,0.06299406,0.008007884,-8.34465E-05,-0.062482953,0.2722696,-0.10969639,0.04940033,0.24424791,0.8905445,-0.13676208,-0.87995285,-0.0069679674,0.06230626,0.008458495,0.0019955635,-0.061697178,0.26472375,-0.09903908,0.040245056,0.24217814,3.3626087,85.4024,
2.3286884,-0.22144003,-4.3085575,1.3432922,0.6795178,1.1282276,0.26418206,0.08408114,0.07938332,0.009045074,0.02619376,0.66775113,0.022677118,-0.5355338,4.902601,-2.3286884,0.22144026,4.3085575,0.029089836,0.022043368,-0.0017717748,-0.018898923,0.067683384,0.067683384,0.0,0.0,0.93420637,-0.14792728,-0.91731006,0.09696061,0.04642055,0.0057905912,-0.0016307831,-0.04602909,0.6669815,-0.08869171,-0.061893463,0.6581545,0.89051676,-0.13659501,-0.8799411,-0.008097637,0.045680724,0.006682873,0.0004696846,-0.045186803,0.6670216,-0.071024895,-0.061035156,0.660415,3.2218933,75.477585,
2.4323223,-0.18461421,-4.2468023,1.5049803,0.8395829,1.2132361,0.29685766,0.09517735,0.08727983,0.02483852,0.028705545,0.3158602,0.080432706,-0.14474943,4.89751,-2.4323223,0.18461421,4.2468023,0.030146718,0.020043015,0.0002390428,-0.022517659,0.080014095,-0.080014095,0.0,0.0,0.9341737,-0.1477238,-0.91738796,0.0962158,0.031041196,0.00813961,-0.0031161308,-0.029792488,0.6589099,0.09396076,-0.05941391,0.64946413,0.89052063,-0.1363711,-0.8799728,-0.008823787,0.030421883,0.008956194,-0.0012683868,-0.029045977,0.65570134,0.090932846,-0.06952286,0.64563304,3.0520647,63.85408,
2.5294127,-0.1518371,-4.1927357,1.6838077,1.0148082,1.3055085,0.31783706,0.086982384,0.07939219,0.023752272,0.026431896,-0.31550556,0.06923243,0.1431492,4.8989806,-2.5294127,0.15183716,4.192735,0.02493484,0.016099155,0.0019698534,-0.018938929,0.15775442,-0.15775442,0.0,0.0,0.9341638,-0.1474905,-0.9174613,0.09577803,0.020057505,0.009331703,-0.0029325485,-0.017510653,0.49363673,0.047683716,0.0073432922,0.4912734,0.8905233,-0.13612527,-0.8800092,-0.009247031,0.019632407,0.009833574,-0.0014543533,-0.016929768,0.4859743,0.035095215,-0.0074386597,0.48464835,2.8143044,55.594543,
2.6064086,-0.11890683,-4.1471276,1.8285837,1.1751267,1.362542,0.32599857,0.06918455,0.061414033,0.02438251,0.020501515,-0.71912616,0.013325233,0.06256044,4.8996096,-2.6064084,0.118906714,4.147128,0.020877538,0.011343723,0.0023029842,-0.017374918,0.19021727,-0.19021727,0.0,0.0,0.93416697,-0.14727557,-0.91751164,0.09565692,0.01007196,0.008597374,-0.002014637,-0.0048446655,0.5088167,-0.029373169,0.03671646,0.5066395,0.89051527,-0.13590008,-0.8800347,-0.009358203,0.010097041,0.009007454,-0.0010204315,-0.004446879,0.50070876,-0.033044815,0.017356873,0.49931556,2.5474308,49.668617,
2.6634002,-0.07470621,-4.0979724,1.9354097,1.30905,1.3890219,0.32065117,0.05713664,0.044092912,0.032904617,0.0154174175,-0.6928448,0.017804168,-0.23729801,4.8880115,-2.6634002,0.07470599,4.0979724,0.024798954,0.008012662,0.0027480884,-0.023307368,0.13324246,-0.13324246,0.0,0.0,0.93416625,-0.14705524,-0.91753536,0.095760934,0.009792005,0.008813143,-0.00094890594,0.004160702,0.36283106,0.008630753,0.042629242,0.3602147,0.89048755,-0.13566513,-0.88004404,-0.0092474185,0.010396976,0.009397864,-0.00037431717,0.004431382,0.3564119,0.015616417,0.025844574,0.35513043,2.3096704,43.54219,
2.7003052,-0.031260855,-4.040128,2.0076883,1.4036572,1.4014764,0.31051955,0.045189127,0.028721647,0.03221048,0.013401835,-0.6148506,-0.015643043,-0.25680318,4.859554,-2.7003052,0.031260885,4.040128,0.030687334,0.0072412565,0.0023570124,-0.029727448,0.030856207,-0.030856207,0.0,0.0,0.93414366,-0.14681672,-0.91753507,0.09590949,0.011240105,0.0095409155,1.1920929E-05,0.005942285,0.08604072,0.029110909,0.038433075,0.07126331,0.8904356,-0.13540494,-0.88003314,-0.009092769,0.012115045,0.010407567,0.000436306,0.0061859936,0.08722634,0.040388107,0.032424927,0.07018447,2.1301372,38.27903,
2.7189987,0.0049303947,-3.983936,2.0482266,1.4730872,1.3883352,0.31268463,0.03478269,0.016556412,0.026516067,0.015251853,-0.4866094,-0.033819158,0.17858326,4.823352,-2.7189987,-0.004930366,3.983936,0.026433868,0.0076323133,0.0015115334,-0.025262866,0.01564227,0.01564227,0.0,0.0,0.93411577,-0.14660254,-0.9175221,0.09608969,0.011207959,0.008566976,0.0005197525,0.0072079897,0.06703384,-0.038957596,0.020313263,0.050628185,0.8903727,-0.13517106,-0.8800074,-0.008905841,0.012020572,0.009355545,0.0010299683,0.0074771047,0.07072372,-0.04208088,0.02374649,0.051644444,2.0961716,38.446114,
2.72524,0.032134954,-3.937388,2.0784185,1.5462278,1.3476629,0.3358682,0.029496828,0.010646466,0.020352699,0.018506303,-0.23639783,-0.0017594965,0.4379755,4.788632,-2.72524,-0.03213521,3.9373884,0.017343247,0.009682915,0.001467546,-0.014313479,0.082024075,0.082024075,0.0,0.0,0.93410456,-0.14646357,-0.91750443,0.09636048,0.012195173,0.005558729,0.000705719,0.010831654,0.18853149,-0.12032986,0.0074386597,0.14494658,0.89030886,-0.13502249,-0.8799684,-0.008626383,0.012755415,0.005942583,0.0015592575,0.01117833,0.20249455,-0.13651848,0.02117157,0.148049,2.105876,49.273182,
2.7300916,0.052205127,-3.901804,2.1313694,1.635215,1.3156312,0.3713774,0.026743744,0.010494292,0.015002762,0.019493967,-0.0060869753,-0.015546922,0.34837133,4.762373,-2.7300916,-0.052205004,3.9018035,0.011260303,0.009706876,0.0010788729,-0.0056041954,0.0009584427,0.0009584427,0.0,0.0,0.93410265,-0.14640251,-0.91747695,0.09669573,0.013674739,0.0024425983,0.0010991096,0.013409853,0.16254051,-0.12464523,0.015735626,0.10312796,0.89024526,-0.13495901,-0.8799171,-0.008282337,0.014143864,0.0025391579,0.002052784,0.013761818,0.17205249,-0.13613701,0.019741058,0.10333955,1.9845699,67.357285,
2.7477453,0.07929959,-3.8798583,2.2336729,1.755702,1.3204161,0.40411082,0.029436495,0.0166925,0.019082144,0.014957923,0.24792835,-0.026411451,0.15534402,4.754965,-2.7477453,-0.07929982,3.8798583,0.006123631,0.0058620125,0.00041858666,-0.0017205947,0.15379454,-0.15379454,0.0,0.0,0.93410486,-0.14645325,-0.9174276,0.09710775,0.016722407,-0.0020295382,0.0019741058,0.016480982,0.21980886,-0.17888546,0.034999847,0.12284517,0.8901856,-0.13500923,-0.87985283,-0.007864917,0.01701248,-0.0020086765,0.0025701523,0.016696826,0.21749385,-0.18191338,0.020694733,0.11740029,1.8050367,79.98329,
2.7879755,0.121368915,-3.8620017,2.3960762,1.9256773,1.3617121,0.42271525,0.042403154,0.029060012,0.030072175,0.007014806,0.49470043,0.03313711,-0.27753597,4.764724,-2.7879753,-0.12136865,3.8620017,0.008990429,0.0020723403,0.0012470144,-0.008658994,0.15158689,-0.15158689,0.0,0.0,0.9341238,-0.14662784,-0.91736335,0.097631976,0.022250293,-0.006983876,0.0025701523,0.020968914,0.26845416,-0.19817352,0.023841858,0.17951727,0.8901404,-0.13517895,-0.8797856,-0.007339093,0.022264497,-0.006788969,0.0026893616,0.021032952,0.25820115,-0.1912117,0.0047683716,0.17344505,1.7225484,81.99387,
2.8517456,0.16731082,-3.8374887,2.6145606,2.1511168,1.4239463,0.42544234,0.056270543,0.044616513,0.034288123,0.0002557818,0.62226003,0.07322313,-0.53003585,4.7840114,-2.8517456,-0.16731068,3.8374887,0.022196257,0.0017773444,0.0030775927,-0.02190989,0.011799838,-0.011799838,0.0,0.0,0.93417096,-0.14688906,-0.9173034,0.09825228,0.02702914,-0.010448694,0.002398491,0.024812222,0.20709589,-0.13859272,-0.006866455,0.1537323,0.8901156,-0.13542768,-0.87972724,-0.0067180106,0.026863059,-0.009949207,0.002334118,0.02484329,0.19852248,-0.12640953,-0.014209747,0.15241355,1.6740259,79.41521,
2.9363942,0.2111567,-3.8089757,2.8837898,2.4321098,1.4916555,0.41958266,0.06987768,0.060908027,0.034115296,-0.0030410746,0.65166056,0.06380014,-0.30845216,4.8140726,-2.9363942,-0.21115674,3.8089757,0.030241882,0.0039144782,0.004672596,-0.029621195,0.085485354,0.085485354,0.0,0.0,0.9342469,-0.14720614,-0.9172538,0.09895997,0.031082332,-0.012683272,0.0019836426,0.028307438,0.16676679,-0.089383125,-0.016593933,0.13980865,0.8901057,-0.1357292,-0.87967587,-0.006007997,0.030923588,-0.012060404,0.0020551682,0.028400552,0.16583881,-0.08444786,-0.0111579895,0.14229044,1.5478674,72.88777,
3.0381377,0.26031154,-3.7857716,3.206445,2.7691379,1.5627087,0.41364965,0.08612891,0.07697483,0.03832225,-0.00494669,0.6426722,0.030723102,0.016719624,4.861081,-3.0381377,-0.26031122,3.7857716,0.03066801,0.007622254,0.005440674,-0.029203204,0.14831103,0.14831103,0.0,0.0,0.934353,-0.14760697,-0.91720885,0.099777795,0.036475174,-0.016033053,0.0017976761,0.032713115,0.22150615,-0.13399124,-0.0074386597,0.1762271,0.8901038,-0.13611686,-0.8796193,-0.005184549,0.03647581,-0.015506744,0.0022625923,0.032937918,0.22806309,-0.13785362,0.008296967,0.18149465,1.3925954,61.002506,
3.1562085,0.3210248,-3.77749,3.5837097,3.1613941,1.6377728,0.40775433,0.10503252,0.09406167,0.046093315,-0.007722608,0.68347365,-0.0020648353,0.24998128,4.9329643,-3.1562085,-0.32102492,3.77749,0.02647986,0.012052802,0.005389053,-0.022953672,0.17722192,0.17722192,0.0,0.0,0.9344666,-0.14811215,-0.91714627,0.10066468,0.04090363,-0.020207167,0.002503395,0.035475492,0.2021959,-0.16696453,0.02822876,0.11049509,0.8900887,-0.13661459,-0.8795317,-0.0042878673,0.04117181,-0.019909143,0.003504753,0.035867263,0.21727455,-0.17609596,0.049686432,0.11717379,1.2373235,49.969368,
3.2921839,0.37139663,-3.7921274,4.003182,3.6042497,1.695418,0.400508,0.11816802,0.11117897,0.0378718,-0.012986304,0.68469197,-0.03174888,0.37159485,5.0355377,-3.2921839,-0.3713966,3.7921274,0.020881122,0.015106445,0.004595331,-0.013663801,0.12214571,0.12214571,0.0,0.0,0.9345533,-0.14875764,-0.9170345,0.101532355,0.04348794,-0.02581954,0.0044703484,0.03470689,0.23986126,-0.22449493,0.07867813,-0.030744076,0.89003843,-0.13725927,-0.8793842,-0.0034073358,0.04404903,-0.025787354,0.0058984756,0.03522126,0.25518802,-0.2351284,0.0957489,-0.025840104,1.1063128,43.42523,
3.43403,0.34798837,-3.840571,4.420754,4.0735607,1.6710945,0.3957402,0.12012331,0.11743282,-0.01695291,-0.018754788,0.25015384,-0.13759291,0.70687425,5.163685,-3.4340298,-0.34798828,3.840571,0.016231144,0.01568599,0.001155508,0.0040080566,0.023181811,0.023181811,0.0,0.0,0.9346195,-0.14953321,-0.916883,0.102366894,0.045972697,-0.031023026,0.0060606003,0.03338158,0.22400574,-0.20813942,0.06361008,-0.05301237,0.8899651,-0.13804168,-0.87919044,-0.0025583291,0.046827536,-0.031296015,0.007750988,0.033960268,0.2378815,-0.22034645,0.074100494,-0.050439686,1.052938,39.498745,
3.5655625,0.22495586,-3.9296908,4.8108687,4.5430655,1.5318923,0.39789325,0.14540151,0.11009465,-0.0928568,-0.019959465,-0.29352665,-0.27508307,1.1413829,5.3109617,-3.5655625,-0.22495581,3.9296913,0.035765745,0.013690479,-0.005721569,0.03254263,0.079820454,-0.079820454,0.0,0.0,0.93467706,-0.15033253,-0.916712,0.10324931,0.048113268,-0.031972528,0.006840229,0.03529668,0.091011845,-0.03798008,0.03118515,0.07660389,0.88987607,-0.13885665,-0.87897414,-0.0016613929,0.049241703,-0.032598972,0.00865221,0.03587745,0.099482596,-0.0521183,0.03604889,0.076687336,1.1014606,36.413254,
3.6906238,0.061430383,-4.046271,5.210591,5.0092845,1.3744255,0.41021663,0.16410501,0.103434384,-0.1263573,-0.016297748,-0.2664107,-0.22739686,0.9420085,5.4769316,-3.6906238,-0.061430465,4.0462704,0.058074147,0.009802602,-0.011406491,0.056092843,0.15551507,-0.15551507,0.0,0.0,0.93469816,-0.1511121,-0.91649985,0.10418213,0.049362037,-0.031182766,0.008485317,0.037312806,0.10877358,0.03159046,0.06580353,0.080645084,0.88974965,-0.13965926,-0.87872016,-0.0007160413,0.050633904,-0.032104254,0.010159016,0.037814062,0.10012528,0.019788742,0.060272217,0.07746443,1.1839488,33.14954,
3.8326514,-0.07507403,-4.1562505,5.6640644,5.4935513,1.3116791,0.42663014,0.15486452,0.110883266,-0.10753834,-0.011109777,0.29795527,0.004239604,-0.04007265,5.6541376,-3.8326514,0.0750738,4.1562505,0.056506366,0.0054997043,-0.0113005005,0.055091027,0.17211592,-0.17211592,0.0,0.0,0.93465024,-0.15187144,-0.9162255,0.10505706,0.047621578,-0.03037393,0.010974407,0.034997165,0.13978253,0.0323534,0.0995636,-0.09262562,0.8895717,-0.14044103,-0.8784157,0.00016734377,0.048731703,-0.03127098,0.012178421,0.035335403,0.13215804,0.033330917,0.080776215,-0.099146366,1.2227668,29.757729,
4.0118265,-0.2104861,-4.2324123,6.179002,6.030963,1.272397,0.43423194,0.16350904,0.12758163,-0.102167234,-0.0044711456,0.6679344,0.21111697,-0.7932234,5.8354406,-4.0118265,0.21048598,4.2324123,0.03578407,-0.0009639696,-0.0060225762,0.035260443,0.25854695,-0.25854695,0.0,0.0,0.93454504,-0.15249237,-0.9159157,0.10591933,0.044272266,-0.024837255,0.012390614,0.034490824,0.22949265,0.22146702,0.056648254,-0.020253658,0.88936,-0.14107949,-0.87809837,0.0010304041,0.044778563,-0.025538206,0.012693405,0.034522414,0.23251964,0.22931099,0.020599365,-0.03251955,1.3004028,26.688944,
4.244254,-0.395718,-4.2769856,6.7422886,6.6410704,1.0885341,0.41199106,0.20360221,0.15385586,-0.133239,0.0054408335,1.0509694,0.1833731,-0.6312218,6.038451,-4.244254,0.39571786,4.2769856,0.02129205,-0.008474454,-0.0014382489,0.019479899,0.3004194,-0.3004194,0.0,0.0,0.934373,-0.1526889,-0.9156139,0.10672499,0.035300326,-0.007861257,0.012073517,0.032226443,0.68517154,0.67903996,-0.012683868,-0.09057522,0.8891133,-0.14129068,-0.8778132,0.0018284675,0.034935776,-0.008447766,0.011405945,0.031922534,0.6933975,0.6836176,-0.051498413,-0.103995204,1.6449124,24.021164,
4.5846853,-0.5990121,-4.306092,7.429909,7.381218,0.7692837,0.35968077,0.26373333,0.22022709,-0.14347461,0.021687292,2.6548493,0.15527666,-0.12840979,6.3182735,-4.5846853,0.59901214,4.3060913,0.022583645,-0.01547087,0.0024436675,0.016269654,0.27985662,-0.27985662,0.0,0.0,0.93401027,-0.15236197,-0.91525596,0.10708687,0.024197469,0.013077259,0.014317036,0.014474988,1.1016852,0.8375406,0.08974075,-0.7100582,0.8887477,-0.14098552,-0.87749124,0.0021750089,0.022517122,0.012206435,0.012879372,0.013861656,1.0990632,0.82616806,0.058937073,-0.7224351,2.2320344,22.584238,
5.1052265,-0.8259302,-4.318382,8.39887,8.384477,0.37329343,0.31972492,0.37918848,0.3420928,-0.15612043,0.048814278,4.8746285,0.2511133,0.027970225,6.737501,-5.1052265,0.82593,4.318382,0.02535441,-0.016698433,0.0087215,0.01696891,0.04910253,-0.04910253,0.0,0.0,0.93326616,-0.15172389,-0.91464734,0.10670412,0.038451303,0.025523305,0.024344921,-0.015309751,1.3520906,0.49784184,0.40111542,-1.1913896,0.8880895,-0.14038633,-0.8769216,0.0017740307,0.036754414,0.023967624,0.022785664,-0.016039126,1.3449265,0.47044754,0.39625168,-1.1960313,2.7415206,21.459204,
5.850322,-1.0930259,-4.294974,9.764212,9.757636,-0.18453221,0.30711642,0.548891,0.50808597,-0.18437724,0.09557746,6.639726,0.11804663,0.14886186,7.3394666,-5.850322,1.0930254,4.294974,0.023917863,-0.0027781525,0.011672665,0.020690456,0.5568112,0.5568112,0.0,0.0,0.9319727,-0.15049224,-0.9136922,0.10531757,0.08344429,0.04926622,0.038206577,-0.055462122,1.9465188,0.94971657,0.55446625,-1.6060948,0.8869598,-0.1392048,-0.8759678,0.00038158335,0.0824101,0.04726112,0.03815174,-0.055697896,1.9396994,0.9317398,0.6146431,-1.5863508,2.9744287,18.902813,
6.8160944,-1.3409698,-4.2309136,11.570468,11.524689,-0.98009604,0.3109483,0.72221726,0.6836262,-0.17660543,0.1518668,7.0216084,-0.09675104,0.35565913,8.133756,-6.8160944,1.3409692,4.230913,0.038706478,0.023183316,0.009253889,0.029581934,1.0384587,1.0384587,0.0,0.0,0.9301563,-0.14826559,-0.9124742,0.10295061,0.13881731,0.08906603,0.048718452,-0.0946784,2.2741823,1.5919924,0.420475,-1.5686512,0.8853517,-0.13703036,-0.87468076,-0.0019660862,0.13796353,0.08697748,0.051481724,-0.09390678,2.2680378,1.5886545,0.5331993,-1.5283555,2.8094523,15.059872,
7.942875,-1.3922471,-4.109457,13.786097,13.661549,-1.8020663,0.41365352,0.8400286,0.81091917,-0.0402751,0.21549019,5.0917196,0.095626265,0.186508,9.050704,-7.942875,1.3922471,4.109457,0.055561196,0.0421753,0.011644546,0.034244634,0.7596794,0.7596794,0.0,0.0,0.9280202,-0.14547151,-0.91101044,0.10059528,0.15746513,0.11176288,0.058550835,-0.09421319,0.9895771,0.9078741,0.3932953,0.01860857,0.88337576,-0.13429923,-0.8730968,-0.004284786,0.15668713,0.10924518,0.06335735,-0.092747994,1.0105237,0.89070797,0.47502518,0.046351552,2.358193,11.1946535,
9.084003,-1.2838677,-3.8542159,16.291035,16.061525,-2.6046498,0.80063945,0.8574215,0.81102633,0.0795042,0.2666216,0.004286766,0.54650515,-1.9036558,9.951001,-9.084003,1.2838677,3.8542159,0.051319122,0.04260356,0.025307175,-0.0133467605,0.017130375,0.017130375,0.0,0.0,0.9257795,-0.14358206,-0.90907633,0.100160666,0.10954236,0.07557809,0.077364445,-0.017384589,3.4792929,-1.4473915,0.7525444,3.073144,0.8810816,-0.13246346,-0.87105465,-0.00468601,0.11100659,0.073431134,0.08168697,-0.01604896,3.464416,-1.4325619,0.7331848,3.0679612,1.9069339,8.331941,
10.222896,-1.1726652,-3.4458363,18.96716,18.562277,-3.5913463,1.5156511,0.8104535,0.74793506,0.08794169,0.29948992,-2.5236511,0.56240153,-2.867813,10.851568,-10.222896,1.1726655,3.4458363,0.09393568,-0.0064790277,0.039367214,-0.08504209,1.9633036,-1.9633036,0.0,0.0,0.9231639,-0.1429002,-0.90633595,0.101814754,0.13090849,0.02727449,0.109615326,0.06616354,4.070115,-1.9321442,1.2900352,3.3419251,0.8783062,-0.13180399,-0.8683549,-0.0030490332,0.12901562,0.026378632,0.10798931,0.06547907,3.90949,-1.8821001,1.0520935,3.2611213,1.6255034,6.494013,
11.474141,-1.1261083,-2.986792,21.773842,21.100021,-4.8244834,2.369306,0.8216993,0.752282,0.043424137,0.32768264,0.17387867,0.20453736,-0.4690957,11.909868,-11.474141,1.1261086,2.9867923,0.13098699,-0.07625438,0.044480648,-0.09676948,2.7910142,-2.7910142,0.0,0.0,0.9196574,-0.14191441,-0.9027095,0.10366111,0.16748525,0.039431453,0.14505863,0.07385433,1.5300552,0.48627853,1.4177322,0.3076315,0.8747967,-0.13084325,-0.8649553,-0.0012871514,0.15790932,0.0384295,0.13598442,0.07047527,1.2354184,0.48203468,1.1198044,0.19984812,1.5866854,5.151768,
12.781719,-1.1896998,-2.5282376,24.825996,23.80451,-6.2121596,3.3293257,0.8708326,0.79769754,-0.039286494,0.34710896,1.8166208,-0.20574108,0.9035495,13.083567,-12.781719,1.1896996,2.5282376,0.109588005,-0.070422575,0.03933712,-0.074180745,0.23327231,0.23327231,0.0,0.0,0.9153083,-0.140642,-0.8982639,0.10550433,0.19911781,0.050896406,0.1778245,0.07372856,1.3885607,0.45859814,1.3106346,-0.005030632,0.8704182,-0.12960427,-0.86071503,0.00047889585,0.19030055,0.049559474,0.16961098,0.07064189,1.4168411,0.445199,1.3450623,0.0066646934,1.7225484,3.9710388,
14.030913,-1.2084612,-2.0061047,28.23743,26.819347,-7.5659995,4.5640783,0.90250057,0.82119274,-0.03133684,0.3730519,0.9398079,-0.72986215,-0.5654323,14.225026,-14.030913,1.2084613,2.0061047,0.090815045,-0.0016573161,0.021090567,-0.08831655,2.7506104,2.7506104,0.0,0.0,0.9103841,-0.14037761,-0.89288706,0.10883973,0.2533139,0.010575652,0.21507263,0.13341606,3.2436483,-1.6128302,1.4899254,2.3874998,0.86509466,-0.12931237,-0.85536695,0.003806891,0.25223094,0.011675954,0.21392345,0.1331198,3.4181273,-1.5153408,1.7724991,2.4991167,1.9069339,2.9685323,
15.260413,-0.947529,-1.3723092,31.80166,30.063587,-8.426246,6.0435658,0.95302093,0.84264463,0.1345563,0.42437428,0.8580756,-0.669507,-1.6545191,15.351262,-15.260413,0.947529,1.3723092,0.13669254,0.043001413,0.0043528923,-0.12967953,1.786349,1.786349,0.0,0.0,0.9048222,-0.14099972,-0.88653487,0.113481715,0.31568423,-0.024884343,0.25408745,0.1856795,2.9694536,-1.4183998,1.5605927,2.0905375,0.85884917,-0.12982416,-0.84893787,0.008488072,0.31876868,-0.020471811,0.25716305,0.18724725,3.0549426,-1.2859106,1.7295837,2.1650977,2.0961716,2.1943748,
16.500572,-0.49764,-0.68973166,35.293594,33.419502,-8.523828,7.4912558,1.0189581,0.8711268,0.2534185,0.4638887,1.1392856,-0.13200085,-0.3168869,16.522478,-16.500572,0.4976399,0.68973154,0.15355963,0.06815586,0.0010528709,-0.1376017,1.0061779,1.0061779,0.0,0.0,0.89844847,-0.14141876,-0.8793038,0.11847028,0.3517944,-0.016761422,0.28924227,0.19954264,1.5461074,0.32491684,1.4061928,0.55452585,0.85167366,-0.13011637,-0.8415666,0.013540511,0.35765415,-0.011688471,0.29484987,0.20209756,1.6579388,0.35133362,1.507473,0.59401274,2.3533409,1.6819828,
17.678858,0.015406887,-0.044112813,38.639847,36.77305,-8.035626,8.729795,1.040592,0.8732859,0.29748914,0.48135608,0.086364746,0.08055005,1.7258346,17.67892,-17.678858,-0.01540697,0.044112824,0.14491336,0.10985705,0.0030666222,-0.09445584,1.6680475,1.6680475,0.0,0.0,0.891402,-0.14085315,-0.8715201,0.12333136,0.3677742,0.022624135,0.31134844,0.19444317,1.818091,1.5754223,0.8842468,-0.20397902,0.8437198,-0.12946938,-0.83352166,0.018504709,0.379016,0.02587974,0.32179832,0.19856793,1.8547443,1.5027285,1.0779381,-0.14118552,2.7948954,1.3979393,
18.72242,0.5828545,0.5455394,41.81447,39.99346,-7.2135415,9.845696,1.01263,0.8248831,0.3405943,0.4785215,-1.9361115,0.19945478,1.6350818,18.739431,-18.72242,-0.58285415,-0.54553944,0.16006418,0.15061542,0.008052992,-0.053578794,1.6303349,1.6303349,0.0,0.0,0.8841343,-0.14001766,-0.8635368,0.12803395,0.37212023,0.03341973,0.31933308,0.18810362,0.5939551,0.43182373,0.31938553,-0.253582,0.835447,-0.12860382,-0.8251592,0.023348827,0.38811466,0.03462255,0.33449888,0.19376472,0.6459866,0.34971237,0.5080223,-0.19212842,3.3383474,1.2141465,
19.645683,1.2090319,1.0921808,44.870213,43.06981,-6.1884685,10.955839,0.97536707,0.7602613,0.38976216,0.47056255,-2.5848722,0.3581535,0.96198887,19.71313,-19.645683,-1.2090319,-1.0921807,0.17019121,0.16674487,0.01700683,-0.029529072,0.64517796,0.64517796,0.0,0.0,0.8768037,-0.13958909,-0.855369,0.1328292,0.37924376,0.017142892,0.32671213,0.19181013,0.7300675,-0.65107346,0.2951622,0.1482606,0.8270491,-0.12819125,-0.8165637,0.028300088,0.39712417,0.016502738,0.34381866,0.19805044,0.8328778,-0.7247925,0.3727913,0.17142892,3.6488912,1.0860485,
20.502665,1.8660451,1.5916014,47.881054,46.028423,-5.245716,12.102147,0.95044035,0.71885765,0.4172024,0.4610018,-1.656146,0.20275556,0.9355728,20.64884,-20.502665,-1.8660454,-1.5916015,0.16993758,0.16838571,0.022075718,-0.006139751,0.065633655,0.065633655,0.0,0.0,0.86929137,-0.13918799,-0.8469738,0.13758515,0.38628316,0.016043782,0.3358078,0.19023776,0.37183133,-0.043964386,0.36382675,-0.06289482,0.8184591,-0.1278418,-0.80773056,0.033214018,0.40456143,0.013977885,0.3533268,0.1965572,0.3980136,-0.10099411,0.38032532,-0.059729815,3.5130284,1.0303537,
21.292013,2.488299,1.9980547,50.80511,48.825935,-4.5713196,13.277431,0.8958361,0.6888412,0.40123487,0.4086939,-1.2006569,0.0036538392,0.7339939,21.52983,-21.292013,-2.4882991,-1.9980547,0.18047532,0.17869213,0.022167064,0.012210096,0.41225672,0.41225672,0.0,0.0,0.8617122,-0.13912186,-0.8385,0.14181277,0.37880164,0.0026452541,0.33895016,0.16910493,1.0087547,-0.5359411,0.12569427,-0.8453131,0.8098275,-0.12784553,-0.7987875,0.037611764,0.39863542,-0.00014901161,0.35772324,0.17590985,1.01604,-0.5650759,0.17585754,-0.8258939,3.1491096,1.0136452,
22.004223,2.9439025,2.2607126,53.60075,51.4781,-4.187307,14.3357,0.7655553,0.64606243,0.30492914,0.27512997,-1.7111516,0.049356148,-0.4904084,22.315088,-22.004223,-2.9439027,-2.2607126,0.17864852,0.17710924,0.023400968,-5.0113173E-05,0.06331563,-0.06331563,0.0,0.0,0.8541003,-0.14008127,-0.82981896,0.14582536,0.38446242,-0.03837645,0.34724236,0.16050339,1.7090477,-1.6408682,0.33168793,-0.34406185,0.8011823,-0.1288658,-0.78964543,0.041794628,0.4042063,-0.040810704,0.36568165,0.16731456,1.6926138,-1.6264677,0.3183365,-0.3438115,2.8288612,1.0526316,
22.676514,3.1672266,2.4199843,56.265347,54.06639,-3.9705517,15.061512,0.6373467,0.60296035,0.1645656,0.12477084,-1.7240834,0.17396428,-1.9520593,23.024158,-22.676514,-3.1672268,-2.4199846,0.16006094,0.14987648,0.027750075,-0.048851594,1.0893106,-1.0893106,0.0,0.0,0.8463424,-0.14150803,-0.8208056,0.15016335,0.40416712,-0.057070255,0.3605342,0.17351985,1.0549386,-0.7477522,0.53167343,0.5206585,0.7924161,-0.13031538,-0.7802562,0.04627604,0.4201749,-0.0579834,0.37556887,0.1792565,0.92543477,-0.68690777,0.39548874,0.47767758,2.7366683,1.1528822,
23.33661,3.239468,2.5144792,58.80102,56.61454,-3.7893412,15.427081,0.58304536,0.57828856,0.06692093,0.032339133,-0.9868717,-0.15132628,-1.1087418,23.69418,-23.33661,-3.239468,-2.5144792,0.1494338,0.12606768,0.023966918,-0.07657014,0.9523517,-0.9523517,0.0,0.0,0.8385752,-0.14250125,-0.8117932,0.15457533,0.40333694,-0.03972888,0.36049604,0.17647922,0.70368475,0.693655,-0.0015258789,0.118374825,0.7836868,-0.1312929,-0.7709381,0.05080961,0.41633838,-0.039100647,0.37272453,0.18134281,0.76837623,0.75531006,-0.113773346,0.08345246,2.979281,1.2754108,
23.966358,3.2442303,2.569079,61.241753,59.10323,-3.6851835,15.613466,0.5502691,0.54955995,0.012128256,-0.025156792,-1.1491442,-0.55299103,-0.7788503,24.32101,-23.966358,-3.2442305,-2.569079,0.14981027,0.11452643,0.010142142,-0.096041396,0.4616502,-0.4616502,0.0,0.0,0.83097994,-0.14333479,-0.80294013,0.15896519,0.39667132,-0.033341646,0.35412312,0.17559409,0.36264455,0.25548935,-0.25491714,-0.03540516,0.77515167,-0.1320543,-0.761815,0.05531398,0.4081172,-0.030456185,0.36492348,0.18017471,0.46809855,0.34577847,-0.31204224,-0.04672408,3.314086,1.4035088,
24.563822,3.2358706,2.6280773,63.649372,61.5362,-3.7736044,15.820819,0.49407732,0.4857236,-0.026117267,-0.08661902,-2.5534534,-1.0819768,-2.426458,24.915037,-24.563822,-3.2358704,-2.6280775,0.17372543,0.07306768,-0.016907278,-0.15670285,1.6583499,-1.6583499,0.0,0.0,0.82329166,-0.14493428,-0.7936561,0.16405235,0.42826283,-0.063979626,0.37136078,0.20348668,1.7950239,-1.2255192,0.68950653,1.1157036,0.76651925,-0.13344862,-0.75238633,0.06048122,0.4336718,-0.055772662,0.3771472,0.20668969,1.5457747,-1.0126591,0.48894882,1.0605991,3.3237906,1.487051,
25.182922,3.3082778,2.7024343,66.00312,63.894,-3.917377,16.081757,0.42598236,0.40839314,-0.01573954,-0.120117806,-3.0932188,-1.5634726,-2.2933412,25.54266,-25.182922,-3.3082778,-2.7024343,0.22186436,-0.016639799,-0.055994093,-0.21403638,3.588299,-3.588299,0.0,0.0,0.81535584,-0.14732747,-0.78369594,0.17006002,0.47501498,-0.09572744,0.39840698,0.24030685,2.2253616,-1.2699127,1.0818481,1.4728069,0.7577122,-0.13547626,-0.7425317,0.06648807,0.46871236,-0.08110583,0.3941846,0.24027407,1.8154682,-1.0133266,0.68149567,1.3433754,2.959872,1.4814814,
25.84643,3.502784,2.7657645,68.25419,66.13607,-3.9680474,16.398432,0.37649968,0.36105865,0.042039692,-0.09808831,-1.8933797,-0.90940356,0.3037858,26.228933,-25.84643,-3.5027843,-2.7657645,0.23978463,-0.09316757,-0.07872918,-0.20644173,3.061111,-3.061111,0.0,0.0,0.80736077,-0.1497657,-0.7735253,0.17623918,0.4859116,-0.09752929,0.40682554,0.24716616,0.44030687,-0.07207394,0.3367424,0.2743721,0.7489816,-0.1374989,-0.7326646,0.07259544,0.47117093,-0.08090556,0.39468527,0.2442947,0.16226529,0.008010864,0.02002716,0.16082525,2.6396234,1.5371763,
26.523233,3.7551472,2.7947133,70.454666,68.289406,-4.040642,16.854988,0.36148664,0.34626254,0.081171945,-0.06469882,-0.5918443,-0.09554207,1.8365705,26.93313,-26.523233,-3.7551472,-2.7947133,0.21536279,-0.11845665,-0.081117734,-0.16052747,1.011563,-1.011563,0.0,0.0,0.7993295,-0.15197994,-0.7633249,0.1821124,0.47907463,-0.08856952,0.40801525,0.23492873,0.60853606,0.3583908,0.04758835,-0.48949718,0.7402895,-0.1393396,-0.7228213,0.07837343,0.46245208,-0.07362783,0.3937316,0.23111969,0.6032654,0.29110909,-0.038146973,-0.5270004,2.8579748,1.7209691,
27.187796,4.0057125,2.7919002,72.65781,70.387794,-4.3162556,17.495312,0.34435582,0.33031708,0.0797199,-0.055823863,-0.6378186,-0.139094,1.2163699,27.622755,-27.187796,-4.0057125,-2.7919002,0.20121054,-0.12805702,-0.084595084,-0.13011822,0.38401484,-0.38401484,0.0,0.0,0.79110366,-0.15405716,-0.75287,0.18787773,0.4847411,-0.083088875,0.41819572,0.23061335,0.49364278,0.21922588,0.40721893,-0.17261505,0.7314101,-0.14106616,-0.71274036,0.08403681,0.46764112,-0.06906271,0.40323734,0.2265352,0.45994285,0.18260479,0.38022995,-0.18337965,3.566403,1.8490671,
27.835363,4.2541904,2.805205,74.83814,72.43079,-4.693924,18.23446,0.31875762,0.30224842,0.07445796,-0.068617195,-1.1227465,0.017161667,-0.8956897,28.297964,-27.835363,-4.2541904,-2.805205,0.22586751,-0.14378028,-0.08416604,-0.15251046,0.62893033,-0.62893033,0.0,0.0,0.78272706,-0.15630378,-0.74210626,0.19367269,0.4971719,-0.08986473,0.43055058,0.23179829,0.5656269,-0.27103424,0.49419403,0.047397614,0.7223901,-0.14294195,-0.70240027,0.08971597,0.47781,-0.07503152,0.41360378,0.22716641,0.4791462,-0.23875237,0.4146576,0.025248528,3.954583,1.7655249,
28.508804,4.5225735,2.8202512,76.89059,74.35459,-4.9687815,18.943802,0.3145784,0.288677,0.09073044,-0.08598347,-0.54285645,0.22400975,-0.9294379,29.002748,-28.508804,-4.522573,-2.8202512,0.26044428,-0.17541903,-0.0785658,-0.17574641,1.2655503,-1.2655503,0.0,0.0,0.77454203,-0.1588451,-0.73154765,0.19880046,0.480394,-0.10165274,0.4223442,0.20511091,1.2122825,-0.47152042,-0.3282547,-1.0674953,0.71371007,-0.14510562,-0.6923575,0.09469739,0.45668992,-0.08654654,0.40171146,0.19925684,1.2979784,-0.46060085,-0.47569275,-1.1163831,3.6391869,1.5594542,
29.174652,4.6999016,2.7709842,78.78717,76.13502,-5.307384,19.562954,0.3202949,0.28482148,0.06764731,-0.1299591,-0.15422106,1.1343741,0.52612543,29.680428,-29.174652,-4.6999016,-2.7709842,0.24708705,-0.17915007,-0.050206445,-0.16259328,0.14924169,-0.14924169,0.0,0.0,0.7667911,-0.16130394,-0.72162026,0.20301186,0.44242036,-0.098353624,0.39709568,0.16845584,1.785258,0.13196468,-1.0099411,-1.4662027,0.7055969,-0.14727546,-0.6829531,0.098751865,0.41873905,-0.0867939,0.37617445,0.16217887,1.8008778,-0.009894371,-1.0214806,-1.4831185,2.9744287,1.3923699,
29.766579,4.629261,2.6133118,80.59679,77.82051,-6.0122347,20.09138,0.34958827,0.27681357,-0.03860147,-0.20999083,-0.32031655,1.589109,1.3846034,30.237537,-29.766579,-4.6292615,-2.6133115,0.19324301,-0.14441136,-0.010478719,-0.12797819,1.3895488,1.3895488,0.0,0.0,0.75948393,-0.16334432,-0.7123107,0.2067559,0.40958428,-0.08161545,0.3723836,0.14976203,1.4087225,0.66952705,-0.9884834,-0.7477522,0.6979199,-0.14916548,-0.67406535,0.102360755,0.39107785,-0.07560074,0.3555107,0.1443556,1.179794,0.44772625,-0.82654953,-0.71293116,2.3436363,1.3533834,
30.276897,4.342721,2.3940482,82.39147,79.48364,-6.9641333,20.54766,0.41561258,0.27650505,-0.15596637,-0.26824108,-0.012340546,0.56173575,0.8353323,30.680305,-30.276897,-4.342721,-2.3940482,0.14174661,-0.092790514,0.0035646749,-0.107094884,2.0648336,2.0648336,0.0,0.0,0.7524194,-0.16516909,-0.70331407,0.2102462,0.3928376,-0.072990656,0.35986423,0.13961196,0.7311858,0.34499168,-0.5007744,-0.406003,0.69039476,-0.15089752,-0.6653491,0.10576137,0.38060316,-0.06928146,0.34864902,0.13602465,0.500273,0.25277138,-0.27446747,-0.33323765,2.3145227,1.4424951,
30.691679,4.006471,2.1966825,84.1468,81.127716,-7.8021064,20.930935,0.4343017,0.28261572,-0.20111248,-0.26134288,0.24442673,-0.3988587,0.22426456,31.029928,-30.691679,-4.0064716,-2.1966825,0.103402704,-0.018740438,-0.0064067934,-0.10148827,2.962003,2.962003,0.0,0.0,0.7454464,-0.16695774,-0.69449437,0.21329093,0.3800141,-0.07154584,0.35278797,0.12178898,0.7692278,0.057792664,-0.28305054,-0.71291924,0.68283,-0.1525732,-0.65661466,0.10879065,0.37581977,-0.06702721,0.3493786,0.12117118,0.60165066,0.09016991,0.029182434,-0.5941391,4.1971955,1.5650237,
31.026976,3.7370188,2.025124,85.81437,82.69959,-8.427397,21.30406,0.3864692,0.27907497,-0.17306235,-0.20377685,-0.14163017,-0.50287396,1.3614079,31.316763,-31.026976,-3.7370183,-2.025124,0.07831138,0.034965232,-0.018978642,-0.06745307,2.1482267,2.1482267,0.0,0.0,0.73853445,-0.16843459,-0.6859157,0.21582986,0.36270243,-0.059074163,0.34314632,0.101557374,1.0259216,0.49886703,-0.3856659,-0.8092642,0.6752507,-0.15393656,-0.64796907,0.11136957,0.3649787,-0.054534674,0.34582376,0.103156865,0.8883384,0.4997015,-0.14219284,-0.7205725,8.80198,1.615149,
31.321354,3.5395648,1.8673787,87.3812,84.16636,-8.923976,21.72237,0.33350497,0.26563966,-0.13355073,-0.15108058,-0.53741217,-0.23962893,1.3555038,31.575985,-31.321354,-3.5395648,-1.8673787,0.06589568,0.050912965,-0.024969365,-0.033565477,0.6379093,0.6379093,0.0,0.0,0.73189497,-0.16959846,-0.67778134,0.21798873,0.33984277,-0.046554804,0.3253746,0.08635461,1.061088,0.5007744,-0.71086884,-0.6081104,0.6679534,-0.15500335,-0.63971394,0.1135859,0.3445512,-0.04267156,0.33020496,0.08865297,0.9757405,0.4745245,-0.62475204,-0.58015585,13.853171,1.5984405,
31.578306,3.3821173,1.735507,88.83357,85.51359,-9.277887,22.197994,0.29946548,0.25489557,-0.10513947,-0.11684827,-0.4297638,0.23126289,0.514376,31.80629,-31.578306,-3.3821177,-1.735507,0.07346969,0.0678298,-0.019187793,-0.020706076,0.6766735,0.6766735,0.0,0.0,0.7258296,-0.1708577,-0.67034656,0.21970826,0.3093697,-0.0503695,0.2973914,0.068781376,1.3305213,-0.15258789,-1.1193275,-0.7029295,0.66126454,-0.15619278,-0.63210976,0.115377165,0.31609356,-0.047577024,0.30416727,0.07165074,1.2592701,-0.19621849,-1.0415077,-0.680089,16.604397,1.5761626,
31.770779,3.2338235,1.6307943,90.14785,86.72224,-9.51147,22.702885,0.26981023,0.24036287,-0.08616645,-0.087169915,-0.581308,0.635519,0.58721024,31.976545,-31.770779,-3.2338238,-1.6307943,0.10013086,0.099894896,-0.003299817,-0.00602582,1.2826037,1.2826037,0.0,0.0,0.7204811,-0.17213303,-0.66379523,0.22099563,0.27189308,-0.05101323,0.262053,0.051494837,1.5738063,-0.025749207,-1.4135361,-0.69146156,0.6553055,-0.15745372,-0.6253002,0.11676153,0.28249222,-0.05043745,0.2723813,0.055374503,1.4330084,-0.114417076,-1.2714386,-0.6510496,16.473385,1.5260373,
31.906563,3.0874841,1.5596368,91.30717,87.78944,-9.737534,23.13426,0.24390523,0.21676756,-0.0824294,-0.075544566,-0.94381213,0.26564524,-0.26056004,32.093517,-31.906563,-3.0874841,-1.5596368,0.118710235,0.117998764,0.0033413144,-0.012539821,0.7241547,0.7241547,0.0,0.0,0.71576566,-0.17304492,-0.6580696,0.22208175,0.23594557,-0.03647566,0.22902489,0.043444633,1.4789207,0.5815029,-1.321125,-0.32200813,0.649993,-0.15836221,-0.6192719,0.11796044,0.24852782,-0.03633976,0.24113417,0.047956407,1.4029436,0.5639076,-1.2498856,-0.29672384,14.056966,1.4146477,
32.012897,2.9654884,1.5242647,92.319565,88.73783,-9.975103,23.430693,0.22821273,0.19436184,-0.0817187,-0.087330334,-0.89622915,-0.38381,-1.4815637,32.18607,-32.012897,-2.9654882,-1.5242647,0.12861,0.11850465,-0.0062539363,-0.049578913,0.020235479,0.020235479,0.0,0.0,0.711578,-0.17373683,-0.6530046,0.2230331,0.20799333,-0.027676225,0.20260096,0.03805399,1.1346987,0.35197735,-1.0569572,-0.21562576,0.64524376,-0.15898958,-0.6139168,0.11902948,0.21986578,-0.025094748,0.2142024,0.042761564,1.1857531,0.4498005,-1.0772705,-0.20779371,11.145616,1.2754108,
32.07944,2.8650088,1.5020684,93.158226,89.54802,-10.155627,23.589634,0.21148238,0.16810139,-0.073524654,-0.10517053,-1.050418,-0.1796114,-1.0961157,32.24213,-32.07944,-2.865009,-1.5020684,0.14365977,0.12081595,-0.0107442215,-0.076981805,0.09245187,0.09245187,0.0,0.0,0.7080809,-0.17453752,-0.64871836,0.22378492,0.17698868,-0.03202796,0.17144918,0.030072927,1.2980403,-0.1740694,-1.2460709,-0.31924248,0.64123183,-0.15968685,-0.60934514,0.11990376,0.18825844,-0.027890801,0.18286705,0.034971237,1.2964021,-0.111842155,-1.2534142,-0.31161308,9.47159,1.1640211,
32.088207,2.7352457,1.473176,93.74321,90.14516,-10.297083,23.571383,0.19031279,0.11733566,-0.08457917,-0.12368372,-2.030629,0.19320326,-0.19137949,32.23825,-32.088207,-2.735245,-1.473176,0.13715692,0.10996052,-0.00591414,-0.08176629,0.43421715,-0.43421715,0.0,0.0,0.7056469,-0.17537819,-0.64561355,0.22441731,0.13112713,-0.033626556,0.12419224,0.025295615,1.9009881,-0.06394386,-1.8902779,-0.19109249,0.6383668,-0.16043141,-0.60598534,0.12064694,0.14082566,-0.029782653,0.13439178,0.02972722,1.951791,-0.07567406,-1.9390106,-0.20976067,9.248386,1.1250348,
32.066273,2.5740325,1.4544531,94.02072,90.46805,-10.449945,23.371508,0.17510311,0.049390808,-0.11257067,-0.1246976,-2.7177942,-0.2766618,0.023057759,32.202282,-32.066273,-2.5740328,-1.4544531,0.10445242,0.064450674,-0.012830686,-0.08118985,1.8203938,-1.8203938,0.0,0.0,0.70450175,-0.17597869,-0.64400965,0.22495724,0.07182897,-0.024020076,0.064156055,0.021597147,2.4364913,0.38425922,-2.4014473,-0.14793873,0.6369531,-0.16091807,-0.60424477,0.12125567,0.07628362,-0.019466281,0.06962299,0.024349391,2.6322143,0.41265488,-2.5907516,-0.21511316,9.806396,1.1584517,
32.034992,2.4384637,1.4768193,94.01324,90.519196,-10.549082,23.097212,0.14482616,-0.013678668,-0.1214565,-0.077690616,-2.522779,-0.72751105,0.66608995,32.16159,-32.034992,-2.4384642,-1.4768194,0.072427034,0.010882469,-0.031018462,-0.0645376,2.1427283,-2.1427283,0.0,0.0,0.70455766,-0.1762135,-0.64387023,0.22534744,0.01905071,-0.0093925,0.0055766106,0.015608072,2.4269772,0.58510303,-2.3431778,-0.23956299,0.6369187,-0.16100831,-0.6041015,0.121668376,0.017843714,-0.0036096573,0.0057315826,0.016508102,2.651801,0.63426495,-2.5556564,-0.31365156,9.898588,1.1584517,
31.9808,2.3549812,1.5349779,93.76882,90.342865,-10.478522,22.824528,0.13023315,-0.07032028,-0.10961182,-0.0009911782,-2.2656643,-0.63700897,1.8271928,32.104107,-31.9808,-2.3549805,-1.5349779,0.057585537,-0.027509421,-0.046943687,-0.01885778,1.5356755,-1.5356755,0.0,0.0,0.70558274,-0.17618132,-0.64489645,0.22564504,0.042759042,0.0012874603,-0.041048527,0.011903644,1.9190363,0.4271984,-1.8650055,-0.14817715,0.63797814,-0.16083571,-0.60520625,0.121956564,0.046188567,0.006904006,-0.044190884,0.011527538,2.050403,0.42054653,-1.9968987,-0.19922256,8.8747635,1.0749094,
31.890015,2.2813168,1.5886323,93.28851,89.9309,-10.324189,22.551937,0.18356542,-0.13364363,-0.11180049,0.057760686,-2.532934,-0.42275906,2.4969928,32.010956,-31.890015,-2.2813163,-1.5886322,0.097711675,-0.065892175,-0.057512663,0.04356704,1.5353101,-1.5353101,0.0,0.0,0.7076046,-0.1758381,-0.64710206,0.22592942,0.09000793,0.013728738,-0.08822441,0.011375546,1.9516673,0.4976511,-1.8870354,-0.021123886,0.64015037,-0.16038652,-0.60756594,0.122197844,0.09656601,0.01796782,-0.09438753,0.009651184,2.0574284,0.44255257,-2.007866,-0.07505417,8.040176,0.95238096,
31.767355,2.221591,1.624378,92.5331,89.24067,-10.181909,22.244232,0.25238276,-0.20801705,-0.1192085,0.078837186,-2.974937,-0.823836,1.2932506,31.886345,-31.767355,-2.2215912,-1.6243778,0.16185775,-0.11973485,-0.078108564,0.075898305,2.153707,-2.153707,0.0,0.0,0.7108423,-0.17535833,-0.6506598,0.22624794,0.1441619,0.019190907,-0.14230967,0.012740493,2.1751003,0.21848679,-2.1634102,0.054597855,0.6436878,-0.15977886,-0.61140484,0.12242875,0.1557418,0.024306178,-0.15355587,0.009236336,2.3803325,0.25353432,-2.3667336,-0.016593933,8.341016,0.8688388,
31.593016,2.2232141,1.6920636,91.48165,88.27864,-9.945632,21.837082,0.3113499,-0.28472334,-0.10205521,0.07386556,-3.0682516,-0.7304239,-1.3047768,31.716312,-31.593016,-2.2232144,-1.6920636,0.19042347,-0.15843302,-0.09636916,0.043278884,1.5479267,-1.5479267,0.0,0.0,0.7153443,-0.17520925,-0.65547746,0.22664632,0.19345625,0.0059628487,-0.19270658,0.015935302,2.0880759,-0.52912235,-2.0158768,0.12779236,0.64860594,-0.15942177,-0.616617,0.12271022,0.2092793,0.014283657,-0.20848751,0.011258721,2.2350037,-0.40090084,-2.1972656,0.080895424,8.869911,0.85213035,
31.330576,2.3002553,1.8142306,90.150894,87.07613,-9.549371,21.301163,0.36326322,-0.353082,-0.055571828,0.064846314,-2.7343464,0.17867953,-2.015781,31.467247,-31.330576,-2.3002555,-1.8142306,0.18598458,-0.1615352,-0.091902174,-0.007115641,0.12408733,-0.12408733,0.0,0.0,0.7210314,-0.17535844,-0.6614757,0.2271247,0.24076599,-0.005967617,-0.23993015,0.019135475,1.9524927,-0.47721863,-1.8889427,0.12800694,0.65475714,-0.15932515,-0.62303805,0.123069055,0.257271,0.0038647652,-0.25684118,0.0143533945,1.9824058,-0.41675568,-1.9341469,0.123786926,8.748605,0.9078251,
30.970316,2.4585514,1.9521556,88.55743,85.62982,-9.074581,20.678581,0.41826752,-0.41176462,0.017418776,0.0713737,-2.3473048,0.7866064,-0.38550735,31.129019,-30.970316,-2.4585512,-1.9521558,0.16849922,-0.15130475,-0.072237015,-0.016753325,0.40921807,0.40921807,0.0,0.0,0.72786844,-0.17521614,-0.66879916,0.2275948,0.29359582,0.0056922436,-0.29293776,0.018803477,2.171034,0.46639442,-2.120304,-0.013279915,0.662094,-0.15897882,-0.6307621,0.12342364,0.30959734,0.013853312,-0.30896187,0.014183521,2.1227777,0.39954185,-2.0848274,-0.0067949295,8.438061,1.0414926,
30.557463,2.6771312,2.0705616,86.751854,83.97111,-8.605887,20.01688,0.4721829,-0.4576367,0.081986845,0.08248327,-1.8348837,0.79993665,0.7300696,30.744314,-30.557463,-2.6771314,-2.0705616,0.17064665,-0.16244742,-0.0522386,0.0014984146,0.44570684,-0.44570684,0.0,0.0,0.73559994,-0.17449914,-0.67724794,0.2280186,0.33958933,0.028679967,-0.33795118,0.016952157,2.0230951,0.91950893,-1.8005371,-0.07405281,0.6704034,-0.1581271,-0.6396336,0.123715125,0.3566821,0.034068823,-0.35485983,0.011659265,2.008646,0.80862045,-1.8359184,-0.10097027,8.248823,1.1640211,
30.111443,2.8737106,2.1565719,84.788826,82.15444,-8.189268,19.306183,0.50807506,-0.49474737,0.090482354,0.07195978,-1.4844263,0.64876795,0.69455856,30.325039,-30.111443,-2.873711,-2.1565719,0.18364598,-0.17908841,-0.0360194,0.018862378,0.66563964,-0.66563964,0.0,0.0,0.7439585,-0.17342547,-0.6864635,0.22839814,0.37142512,0.042946935,-0.36862135,0.015181899,1.3548958,0.5706787,-1.2268066,-0.07081032,0.6794154,-0.15697707,-0.64930874,0.1239421,0.3898359,0.046001077,-0.3870058,0.0090789795,1.3754419,0.47729015,-1.2858391,-0.1032114,8.137221,1.2308549,
29.602295,2.9757547,2.2121708,82.7065,80.22129,-7.8524146,18.526974,0.5304239,-0.526373,0.04888516,0.04348766,-1.2650263,0.5498496,0.47134846,29.833616,-29.602295,-2.9757543,-2.2121708,0.17336933,-0.16917934,-0.022273159,0.03064609,0.39636314,0.39636314,0.0,0.0,0.75276107,-0.17220145,-0.69619954,0.22869647,0.39268935,0.048960447,-0.38944244,0.01193285,0.8765721,0.2405405,-0.8328438,-0.12996197,0.68887967,-0.15572315,-0.65947425,0.12409335,0.4097469,0.050156713,-0.4066205,0.0060498714,0.81110406,0.16622543,-0.78458786,-0.12116432,8.559367,1.2475634,
29.008501,2.9810808,2.2427497,80.5433,78.20126,-7.6212163,17.711622,0.55261457,-0.5521276,0.003716934,0.02289443,-1.0301828,0.51180685,0.69556487,29.24739,-29.008501,-2.981081,-2.2427497,0.14653127,-0.13810937,-0.009477988,0.04803521,1.2427986,1.2427986,0.0,0.0,0.76180005,-0.17071253,-0.706265,0.22888067,0.40706527,0.05955696,-0.40261745,0.007368326,0.7005162,0.42386055,-0.5270004,-0.18258095,0.6985339,-0.15425332,-0.66988134,0.12415523,0.4204222,0.058793426,-0.4162836,0.002475381,0.53776634,0.34546852,-0.3865242,-0.14297962,10.209132,1.2141465,
28.354378,2.9237003,2.2543056,78.28742,76.09041,-7.427296,16.852476,0.5729942,-0.5723693,-0.024906438,0.009766169,-0.8096671,0.37085003,0.53269786,28.593718,-28.354378,-2.9237003,-2.2543056,0.13301119,-0.11801605,-0.00020673731,0.06135266,0.8037329,0.8037329,0.0,0.0,0.77105373,-0.16898072,-0.71666646,0.22881985,0.4217939,0.06927252,-0.4160595,-0.0024330616,0.7706077,0.38862228,-0.5376816,-0.3920555,0.7083951,-0.15257655,-0.6805668,0.12398754,0.43270013,0.06707072,-0.42741776,-0.0067076087,0.6655046,0.33109188,-0.4453659,-0.36731958,13.363093,1.1528822,
27.649864,2.7828076,2.2545216,75.89426,73.862366,-7.19431,15.891234,0.594157,-0.5902917,-0.065078914,-0.018521328,-0.71689606,0.5361769,-0.20611808,27.880852,-27.649864,-2.7828078,-2.2545216,0.11713252,-0.1019188,0.0131976865,0.056199707,0.6438899,0.6438899,0.0,0.0,0.7806622,-0.16727108,-0.7275509,0.22830555,0.4411964,0.0683856,-0.43537855,-0.020571947,1.0605899,-0.035476685,-0.7727623,-0.7255554,0.71864516,-0.15095207,-0.69169545,0.123376206,0.45052826,0.064979196,-0.44514656,-0.024453402,1.006855,-0.08366108,-0.7091522,-0.7098317,16.293852,1.0971874,
26.878262,2.573299,2.2342076,73.37311,71.51053,-6.922351,14.897602,0.6187244,-0.6105336,-0.09118157,-0.041887835,-0.80967665,0.661549,0.17891183,27.093441,-26.878262,-2.573299,-2.2342076,0.10273301,-0.07738647,0.02973641,0.060672503,0.9812933,0.9812933,0.0,0.0,0.79061276,-0.16571176,-0.738871,0.22732763,0.4587486,0.062372684,-0.45280218,-0.03911674,1.045866,-0.24051666,-0.6969452,-0.7417917,0.7292468,-0.14952503,-0.70319396,0.122317,0.4654015,0.05708158,-0.45994043,-0.042368174,0.98156613,-0.31590462,-0.5917549,-0.7165909,16.580135,1.1194654,
26.05245,2.3288867,2.1696572,70.748085,69.03478,-6.7015624,13.949177,0.651954,-0.64008737,-0.10345511,-0.068038315,-1.1821508,0.2287142,0.46022132,26.246166,-26.05245,-2.3288867,-2.1696572,0.108669996,-0.07309237,0.035454266,0.072178036,0.1717639,0.1717639,0.0,0.0,0.8007698,-0.16437687,-0.7504058,0.22606114,0.46722636,0.05339563,-0.4613924,-0.050659776,0.67837584,-0.35908222,-0.34360886,-0.46172142,0.7400751,-0.1483475,-0.7148917,0.120971195,0.47334418,0.04710138,-0.46790838,-0.053832233,0.68646026,-0.39920807,-0.31871796,-0.45856237,15.187539,1.1918685,
25.17619,1.9601197,2.023071,68.0105,66.43394,-6.6377873,12.957633,0.7096656,-0.67499965,-0.17375481,-0.13345411,-1.3964915,0.14623553,0.3303951,25.333286,-25.17619,-1.96012,-2.023071,0.119976066,-0.07996496,0.039110154,0.08043791,0.27490348,-0.27490348,0.0,0.0,0.8111427,-0.16334116,-0.7621105,0.22463231,0.4734788,0.04142821,-0.46818733,-0.057153106,0.60867536,-0.47869682,-0.27179718,-0.2597332,0.7511477,-0.14748582,-0.72677445,0.11945596,0.48039803,0.034466982,-0.47531128,-0.06060928,0.64542603,-0.50537586,-0.29611588,-0.27108192,14.527634,1.219716,
24.208523,1.4231102,1.7854009,65.1789,63.728317,-6.7177362,11.910621,0.77815926,-0.707703,-0.26170483,-0.19026014,-1.3081336,0.6118423,1.241656,24.315952,-24.208523,-1.42311,-1.7854009,0.13661233,-0.057229847,0.05440621,0.11147931,0.90940446,0.90940446,0.0,0.0,0.82170844,-0.16241188,-0.7739877,0.22309224,0.48050666,0.037171245,-0.47508955,-0.061602592,0.3699952,-0.17027855,-0.2760887,-0.17797947,0.7623652,-0.14679797,-0.7387583,0.117844,0.48445392,0.0275141,-0.47935486,-0.06447852,0.35701895,-0.27811527,-0.16174316,-0.15476942,15.075937,1.197438,
23.128428,0.8482309,1.4884288,62.275654,60.928726,-6.7990465,10.941687,0.80306774,-0.7362832,-0.25938526,-0.18847868,-1.1432076,0.92708826,2.1883214,23.191788,-23.128428,-0.8482315,-1.4884287,0.18390587,-0.013562823,0.07758342,0.16618735,1.746681,1.746681,0.0,0.0,0.8322858,-0.16139853,-0.78591233,0.22134139,0.48380005,0.04053414,-0.47698498,-0.070034266,0.37093356,0.13451576,-0.07581711,-0.33726692,0.7735022,-0.14613523,-0.7506545,0.116051264,0.48195028,0.026509762,-0.47584772,-0.071709454,0.32396337,-0.04017353,0.14028549,-0.2892375,15.8474455,1.1528822,
21.960333,0.37739944,1.1555945,59.276573,58.019566,-6.7384434,10.101257,0.7969804,-0.7620113,-0.16867954,-0.16144261,-1.0291243,0.80239475,1.8750131,21.993954,-21.960333,-0.3774,-1.1555945,0.2350446,0.017777935,0.097643286,0.21306267,1.2536302,1.2536302,0.0,0.0,0.8427542,-0.16036147,-0.79778695,0.21921392,0.4843274,0.04148245,-0.47498465,-0.08509874,0.6090506,0.037932396,0.080013275,-0.6025791,0.7844832,-0.14554337,-0.76240224,0.11390275,0.4782891,0.023674369,-0.4699087,-0.08594066,0.62716943,-0.11341572,0.23756027,-0.5692482,15.891115,1.1027569,
20.741585,0.032399014,0.79243696,56.152267,54.99452,-6.4923925,9.302094,0.8022334,-0.7839501,-0.075291246,-0.15274778,-0.87755203,0.38193047,0.795697,20.756742,-20.741585,-0.032398887,-0.79243696,0.25794053,0.027842496,0.10719155,0.2329551,0.40258244,0.40258244,0.0,0.0,0.85307163,-0.15933406,-0.8095765,0.21663262,0.48449957,0.04109621,-0.4715824,-0.103251934,0.7389319,-0.015449524,0.13608932,-0.7261276,0.79532605,-0.14500473,-0.77403355,0.1113071,0.47718322,0.021545291,-0.4652524,-0.10382593,0.74414736,-0.08516312,0.1862526,-0.7154107,15.590276,1.0526316,
19.506811,-0.21688177,0.42132804,52.946667,51.894405,-6.1605597,8.506924,0.8140569,-0.7973697,-0.017995438,-0.16299155,-0.5367851,-0.14843166,-0.5441469,19.512566,-19.506811,0.21688192,-0.42132807,0.24380913,0.024891341,0.10348076,0.21935143,0.11804618,-0.11804618,0.0,0.0,0.86305636,-0.15830237,-0.8210633,0.21368612,0.47613794,0.04126787,-0.45947075,-0.11785984,0.7590655,0.006866455,0.48446655,-0.58431625,0.80586594,-0.14444083,-0.7853775,0.1083463,0.46950132,0.022556186,-0.45375824,-0.118432045,0.744555,0.04043579,0.4597664,-0.5842447,15.842593,0.97465885,
18.26247,-0.37724215,0.07502089,49.686543,48.73472,-5.813986,7.7380443,0.8258109,-0.80596364,0.026550006,-0.17799272,-0.34375668,-0.3889206,-1.5960652,18.26652,-18.26247,0.3772423,-0.07502087,0.20406209,0.025467508,0.09375774,0.1794498,0.023046657,0.023046657,0.0,0.0,0.8726217,-0.15736684,-0.83213013,0.21038966,0.4634085,0.037420988,-0.44267416,-0.13185859,0.888044,-0.15387535,0.67186356,-0.5599499,0.81600463,-0.14391261,-0.796316,0.105040595,0.45757276,0.021128654,-0.437541,-0.13222814,0.8535747,-0.05710125,0.64868927,-0.55184364,15.337959,0.9078251,
17.004158,-0.38809684,-0.23886667,46.348953,45.49585,-5.387283,7.0235496,0.8490216,-0.82072216,0.11419891,-0.18496335,-0.5903411,-0.35547674,-1.6479683,17.010263,-17.004158,0.38809675,0.2388667,0.16396245,0.023820281,0.08487082,0.13825059,0.06588906,-0.06588906,0.0,0.0,0.88179123,-0.15664381,-0.8427604,0.20681755,0.44950628,0.028921366,-0.42521,-0.14288425,0.89335847,-0.3399849,0.69856644,-0.4410267,0.82576287,-0.14353707,-0.8068376,0.10146167,0.44479856,0.015021563,-0.42086363,-0.14315695,0.8341419,-0.24428368,0.6670952,-0.4371524,13.314571,0.8855472,
15.721005,-0.27136496,-0.5306753,42.928246,42.17904,-4.8877525,6.314491,0.88472307,-0.84178877,0.18960802,-0.19538532,-0.84266424,-0.33967048,-1.3655281,15.7323,-15.721005,0.27136517,0.5306753,0.13107912,0.022551887,0.07637906,0.10411239,0.05073577,-0.05073577,0.0,0.0,0.8905027,-0.15593958,-0.85288626,0.20313281,0.4319382,0.028169155,-0.40503502,-0.14738977,0.82742524,-0.030088425,0.8069992,-0.1802206,0.8350582,-0.14312765,-0.8168704,0.097772464,0.42789608,0.016376972,-0.40131092,-0.14756829,0.80359733,0.054216385,0.7821083,-0.17645359,11.514387,0.8688388,
14.4247875,-0.18163987,-0.8236771,39.43558,38.791656,-4.4561048,5.5241103,0.8925486,-0.8513061,0.15975514,-0.215405,-0.38069248,-0.39420545,-0.69012284,14.449427,-14.4247875,0.18163985,0.82367706,0.11174059,0.0227153,0.066523924,0.086859316,0.0065365434,0.0065365434,0.0,0.0,0.89855903,-0.15480447,-0.8624543,0.19903894,0.41875157,0.045404434,-0.38272142,-0.16375482,1.3040038,0.68941116,0.8925438,-0.65460205,0.8437212,-0.14224607,-0.82635105,0.093677945,0.4145843,0.0352633,-0.3792262,-0.16378075,1.3310279,0.7554531,0.8833885,-0.64849854,10.771993,0.89668614,
13.169701,-0.07508487,-1.1230817,35.904785,35.361355,-4.055437,4.7203393,0.8668741,-0.829041,0.15227847,-0.20241795,0.89060307,-0.69887817,0.4880923,13.217713,-13.169701,0.07508498,1.1230818,0.1117618,0.01647421,0.04905197,0.09906162,0.24964362,-0.24964362,0.0,0.0,0.90568453,-0.15304619,-0.8713389,0.1939326,0.41588956,0.0703311,-0.35538435,-0.2042538,2.1941087,0.9970665,1.093483,-1.6199589,0.8515502,-0.14070651,-0.83516145,0.08857124,0.41196468,0.061582327,-0.35241604,-0.2042681,2.2093263,1.0527611,1.0724068,-1.619494,10.970935,1.0192147,
11.970836,0.14723514,-1.4144058,32.385487,31.945496,-3.544774,3.9673214,0.8368517,-0.7901489,0.20906824,-0.1796554,1.5556836,-0.82265466,0.23533285,12.055004,-11.970836,-0.14723511,1.4144058,0.11009303,0.017193131,0.028485604,0.104944944,0.028756857,0.028756857,0.0,0.0,0.9119197,-0.15105942,-0.87948704,0.18783292,0.41481626,0.07947087,-0.32592535,-0.24398685,2.0119975,0.36559105,1.17836,-1.5893221,0.85856473,-0.13888979,-0.8432321,0.08247841,0.41096652,0.07266879,-0.3228259,-0.24371326,2.0216453,0.44345856,1.1836052,-1.5778065,11.223252,1.1695906,
10.792073,0.37734216,-1.7200353,28.910637,28.576963,-2.9955502,3.1951194,0.8162515,-0.76768994,0.19678473,-0.19543391,0.8983588,-0.66621274,-0.3194964,10.934795,-10.792073,-0.37734178,1.7200353,0.1008389,0.025055222,0.011830285,0.096957535,0.31448364,0.31448364,0.0,0.0,0.9174766,-0.14914437,-0.8869146,0.18138818,0.40074113,0.0766021,-0.29710293,-0.2577895,1.2834172,-0.11475086,1.1528969,-0.5521059,0.8648922,-0.13709387,-0.85056436,0.076052845,0.39653566,0.07183671,-0.29329062,-0.25702268,1.2962509,-0.033283234,1.1814117,-0.53237677,10.927265,1.2364244,
9.643349,0.51276934,-2.062751,25.520607,25.28442,-2.521936,2.3747325,0.795208,-0.7533965,0.11800243,-0.22544345,0.5717373,-0.51560235,-0.10225117,9.874819,-9.643349,-0.5127694,2.062751,0.095829286,0.01644785,-0.0010597743,0.094401255,0.3442949,-0.3442949,0.0,0.0,0.92223215,-0.14731887,-0.89340514,0.17503278,0.37062234,0.07301986,-0.25962114,-0.2542162,1.5128702,-0.14328957,1.4992714,0.14293194,0.87040234,-0.13535146,-0.85698324,0.069712706,0.367555,0.06969631,-0.25675535,-0.25360554,1.4702836,-0.08561611,1.4614105,0.13668537,10.6798,1.197438,
8.583478,0.63242716,-2.4262977,22.291458,22.13938,-2.0715606,1.5702212,0.75323766,-0.7095104,0.09593445,-0.23400545,1.755445,-0.37437087,0.0010496378,8.942202,-8.583478,-0.6324269,2.4262977,0.0950387,-0.0026915926,-0.0104190465,0.094427496,0.7655777,-0.7655777,0.0,0.0,0.92589325,-0.145641,-0.8986851,0.16861817,0.33903486,0.06711483,-0.21119833,-0.2565843,1.9535593,-0.23620129,1.9369125,-0.0947237,0.87484425,-0.13373217,-0.8622421,0.06329875,0.33803332,0.06477177,-0.21035433,-0.25655836,1.8701979,-0.19698143,1.856041,-0.118112564,11.092241,1.1918685,
7.6171203,0.73587847,-2.7738254,19.308475,19.22657,-1.5771078,0.81788427,0.6963861,-0.6476274,0.07839863,-0.24369241,2.475319,-0.13813496,-1.0757955,8.139788,-7.6171203,-0.73587805,2.7738254,0.0690807,-0.00436418,-0.01387242,0.06753261,0.066903494,-0.066903494,0.0,0.0,0.92852145,-0.1445644,-0.90273434,0.16224656,0.30503225,0.04306376,-0.16196966,-0.2548647,2.192669,-0.9620428,1.9691467,0.06878376,0.8782315,-0.13268058,-0.86628276,0.05692727,0.30470568,0.042063594,-0.16162634,-0.25485903,2.151452,-0.9083271,1.9491196,0.06797314,12.101509,1.336675,
6.693786,0.650471,-3.1046762,16.604637,16.569336,-1.076073,0.11459516,0.6655946,-0.60708046,-0.055964157,-0.26709065,1.6218781,-0.050489828,-1.3273027,7.407355,-6.693786,-0.65047127,3.1046762,0.03864468,0.009188473,-0.015134666,0.034350038,0.5421061,0.5421061,0.0,0.0,0.9305151,-0.14443403,-0.90582454,0.15645789,0.2625263,0.0052148104,-0.12360811,-0.23154676,2.348745,-1.513958,1.534462,0.9327173,0.88087076,-0.13254167,-0.8693386,0.05115147,0.26143348,0.005556345,-0.12223244,-0.23103207,2.350279,-1.46029,1.5757561,0.95307827,12.116066,1.4814814,
5.7975473,0.31864563,-3.4502814,14.160531,14.138156,-0.60173166,-0.5206781,0.6898332,-0.5875772,-0.22657052,-0.28158242,0.78012943,0.0649637,-0.04938662,6.754075,-5.7975473,-0.31864548,3.4502811,0.037496317,0.01126101,-0.013510574,0.033115372,0.082901455,0.082901455,0.0,0.0,0.9322371,-0.14506197,-0.9083217,0.15157425,0.22083426,-0.025117397,-0.09988546,-0.19534528,2.1140876,-1.2132883,0.94890594,1.4480591,0.8831214,-0.13316429,-0.8717962,0.046282142,0.21959193,-0.024904609,-0.09830475,-0.19477308,2.1223075,-1.2184381,0.95710754,1.4503598,10.364404,1.4313562,
4.940726,-0.14997149,-3.8262866,11.936069,11.888916,-0.16618769,-1.0467982,0.7141987,-0.576564,-0.31891632,-0.27558318,0.4405284,0.15917602,1.048353,6.250899,-4.940726,0.1499717,3.826287,0.06039519,-0.0061135236,-0.009531173,0.059324197,0.69498134,-0.69498134,0.0,0.0,0.9337952,-0.14613387,-0.9104055,0.14758101,0.18520191,-0.042876005,-0.08335352,-0.15972972,1.7237827,-0.7103443,0.6612778,1.4246225,0.88514346,-0.13426526,-0.8738785,0.04228615,0.18554145,-0.04403889,-0.08329153,-0.15983969,1.7026376,-0.7653713,0.6005287,1.3973355,8.078995,1.2587023,
4.1130424,-0.6816643,-4.1926923,9.878603,9.773677,0.23763599,-1.416178,0.721146,-0.5699546,-0.35799223,-0.2589303,0.2643776,0.2623067,0.33198446,5.9127364,-4.1130424,0.6816642,4.1926923,0.070216276,-0.018668268,-0.0029735053,0.06762381,0.50218976,-0.50218976,0.0,0.0,0.9351022,-0.14775851,-0.9120186,0.14424175,0.16194892,-0.06498575,-0.06452322,-0.13357043,1.5634471,-0.8843899,0.753212,1.0463715,0.8868669,-0.1359438,-0.87552077,0.038930744,0.16382116,-0.06714165,-0.06569147,-0.13421625,1.5492245,-0.9241104,0.7040024,1.0249376,6.1672087,1.1417433,
3.33929,-1.2146994,-4.487989,7.979244,7.787925,0.6638046,-1.6049706,0.6891596,-0.5478603,-0.35310057,-0.2238527,0.88377,0.31846634,-0.75621784,5.7243686,-3.33929,1.214699,4.487989,0.056675296,-0.028525928,0.0049881535,0.048718363,0.3943064,-0.3943064,0.0,0.0,0.9360142,-0.1497937,-0.91310453,0.14115408,0.15416846,-0.08140743,-0.04343748,-0.123506784,1.1423182,-0.656867,0.84342957,0.40254593,0.8881906,-0.13803653,-0.8766674,0.03581556,0.15696439,-0.08370936,-0.045864582,-0.124607384,1.1026692,-0.6627083,0.79307556,0.3843546,4.7260904,1.080479,
2.6793296,-1.6468441,-4.6877193,6.321737,5.9956927,1.2088518,-1.598344,0.5883607,-0.49088052,-0.27848446,-0.1662862,2.2791922,0.2721655,-0.75662434,5.644964,-2.6793296,1.6468443,4.68772,0.054535236,-0.04412289,0.011792291,0.029802755,0.6238785,-0.6238785,0.0,0.0,0.936598,-0.15194106,-0.9138182,0.13808,0.15268488,-0.085894465,-0.028545856,-0.12296319,0.6224975,-0.1794815,0.595665,0.021743774,0.8892261,-0.14024207,-0.8774885,0.032697905,0.15624793,-0.08822143,-0.032844543,-0.12470618,0.55120224,-0.18048286,0.52080154,-0.003951788,3.6294823,0.9857978,
2.1383312,-1.9679016,-4.809584,4.972916,4.4430256,1.7207463,-1.4242359,0.47624168,-0.4204872,-0.1992994,-0.10137262,2.815733,0.15539967,0.016121715,5.619359,-2.1383312,1.9679016,4.809584,0.061581902,-0.0513241,0.015677283,0.030205797,0.2880484,-0.2880484,0.0,0.0,0.9369958,-0.15385127,-0.914344,0.1351516,0.1414268,-0.076408386,-0.021033287,-0.11713624,0.5372191,0.37944317,0.30050278,0.233078,0.89007926,-0.14222097,-0.87814075,0.029718399,0.1454315,-0.07915616,-0.026090145,-0.11918023,0.5033283,0.36261082,0.27017593,0.22103786,2.979281,0.85213035,
1.6630375,-2.2727685,-4.8725824,3.8060808,3.130069,1.8019476,-1.2007935,0.41299406,-0.36592573,-0.18629679,-0.044226155,2.1824586,0.10747559,0.40422902,5.6278973,-1.6630374,2.272768,4.8725824,0.057885632,-0.037262376,0.018364172,0.040311523,0.5624689,0.5624689,0.0,0.0,0.9372298,-0.15487266,-0.914752,0.13282666,0.10287878,-0.040855408,-0.016319752,-0.09299755,1.7292348,1.4221191,0.18854141,0.96554756,0.89066887,-0.1433272,-0.87863535,0.02735447,0.106256604,-0.044249296,-0.019783974,-0.09455718,1.7272182,1.3962746,0.25224686,0.98492205,3.3626087,0.75744915,
1.2795249,-2.454039,-4.878248,2.7649648,2.054909,1.543556,-1.0197129,0.31611642,-0.30026263,-0.09841554,0.009291427,2.626524,0.1162003,0.26245564,5.608636,-1.2795249,2.4540393,4.878248,0.060767613,-0.03229945,0.02126918,0.046872914,0.198517,0.198517,0.0,0.0,0.9372581,-0.15454462,-0.9150899,0.13106945,0.07276867,0.0131213665,-0.013515949,-0.07028818,2.3450608,2.159071,0.1121521,0.9083748,0.8909829,-0.14309755,-0.879045,0.025562005,0.07411876,0.009186268,-0.016386509,-0.071698576,2.3287485,2.1374226,0.13589859,0.9143442,4.9784074,0.69618493,
1.0168957,-2.4480183,-4.8265247,2.019592,1.2159176,1.3730539,-0.8455883,0.2296141,-0.22193661,0.03586097,0.04669863,3.1330407,0.20130515,-0.43629214,5.5065603,-1.0168957,2.448018,4.8265243,0.057153445,-0.035793938,0.026301809,0.03596561,0.13977945,-0.13977945,0.0,0.0,0.9371438,-0.1536003,-0.915346,0.12956534,0.0717738,0.037772655,-0.010244846,-0.060164332,1.0739672,0.98605156,0.13084412,0.40495396,0.89114076,-0.142255,-0.8793853,0.0240182,0.071655035,0.033702254,-0.013611317,-0.0617522,1.0640794,0.98063946,0.11100769,0.39785504,6.337037,0.6404901,
0.8385715,-2.3458238,-4.743429,1.6688467,0.5657855,1.4378059,-0.6305951,0.19865473,-0.15945555,0.10311872,0.05834514,2.4992423,0.041692406,-0.6527696,5.357818,-0.83857155,2.3458235,4.7434297,0.045364335,-0.03040135,0.027344119,0.019646369,0.21570347,0.21570347,0.0,0.0,0.9369631,-0.15295663,-0.91546464,0.12817402,0.06150325,0.025746822,-0.0047445297,-0.055652857,0.5588954,-0.48103333,0.22001266,0.18045902,0.89120597,-0.14170113,-0.8795786,0.022591855,0.061690655,0.02215445,-0.0077319145,-0.05705379,0.5513535,-0.46191216,0.23517609,0.18793643,6.3612986,0.6182122,
0.6913823,-2.24911,-4.6459603,1.5316657,0.040968087,1.465495,-0.44344768,0.16328195,-0.123390414,0.093415104,0.052052088,1.4426055,-0.2287206,-0.77151895,5.207826,-0.6913823,2.2491097,4.6459603,0.025988905,-0.014408549,0.021626104,0.00035839493,0.63971204,0.63971204,0.0,0.0,0.9367639,-0.15245044,-0.9155082,0.1270046,0.051001046,0.020247698,-0.0017428398,-0.04677713,0.43456468,-0.21996498,0.1200676,0.3550291,0.8911859,-0.14125237,-0.87966007,0.021403408,0.050918527,0.017950535,-0.003259182,-0.047537908,0.4529552,-0.16815662,0.1789093,0.38063526,5.8129945,0.6516291,
0.5734193,-2.1271443,-4.521797,1.472099,-0.36339238,1.3835676,-0.34750834,0.14791599,-0.09135207,0.10672507,0.04630009,1.2815338,-0.18092304,-1.0566189,5.029931,-0.5734193,2.1271443,4.5217977,0.031174585,-0.0006081237,0.017103028,-0.02605708,0.55201703,0.55201703,0.0,0.0,0.93659496,-0.15158686,-0.9155928,0.12617992,0.047883462,0.034543276,-0.0033831596,-0.032987,0.7972171,0.5718231,-0.06561279,0.5516052,0.8911255,-0.14041057,-0.87975353,0.02057342,0.04743391,0.033671856,-0.0037384033,-0.03319949,0.8513329,0.62885284,-0.019168854,0.57353675,5.2646904,0.73517126,
0.49288312,-1.9939115,-4.3721175,1.5093317,-0.66083395,1.3208156,-0.31117013,0.13721904,-0.06136979,0.11522463,0.042262264,1.199291,0.02008915,-0.99621505,4.8305306,-0.49288312,1.9939115,4.3721175,0.054198246,0.0055075325,0.017605256,-0.050962456,0.24462625,0.24462625,0.0,0.0,0.93646634,-0.1505273,-0.9157219,0.12555529,0.04946915,0.04238248,-0.0051641464,-0.024985075,0.45370615,0.31356812,-0.07123947,0.32007694,0.89107233,-0.13935183,-0.87988234,0.019948807,0.04943956,0.042349696,-0.0051522255,-0.024984553,0.48131317,0.3471136,-0.056552887,0.32859743,4.5174437,0.85213035,
0.44183305,-1.9124384,-4.237325,1.5940993,-0.8914314,1.2947034,-0.26503927,0.096937485,-0.042910866,0.078783154,0.03672532,0.738357,0.014106184,0.035484135,4.6698565,-0.44183305,1.9124383,4.237325,0.05328325,0.0030128374,0.01795791,-0.050075352,0.0997878,-0.0997878,0.0,0.0,0.9363499,-0.1497577,-0.91581386,0.12493523,0.03970324,0.03078401,-0.0036787987,-0.024802387,0.4677847,-0.4639387,0.05941391,0.0073075294,0.8910357,-0.13858478,-0.8799803,0.01932643,0.039705396,0.030682087,-0.0039196014,-0.024895072,0.4693152,-0.46670437,0.049304962,0.003579259,3.5761075,0.9690894,
0.40399474,-1.899906,-4.1445913,1.6171092,-1.0755688,1.1929542,-0.18722755,0.05501326,-0.036925763,0.026613917,0.030897353,0.23940414,-0.11715785,0.81926703,4.577171,-0.40399474,1.8999058,4.1445913,0.033304047,-0.0027393668,0.015028965,-0.029593676,0.23008816,-0.23008816,0.0,0.0,0.93625146,-0.14942005,-0.91583985,0.12440984,0.025002949,0.013505816,-0.001039505,-0.021015704,0.7153638,-0.6911278,0.10557175,0.15146732,0.8910149,-0.13826032,-0.8800218,0.018794399,0.024981624,0.012978315,-0.0016593933,-0.021281242,0.7283865,-0.70815086,0.090408325,0.14455318,2.7560775,1.0470622,
0.3680547,-1.925601,-4.0859075,1.5989256,-1.2144673,1.0359758,-0.09157676,0.04515907,-0.036504447,-0.005216019,0.026068375,0.016852617,-0.17304532,0.7063109,4.5318913,-0.3680547,1.9256005,4.0859075,0.01711561,-0.0059939753,0.010702832,-0.011935903,0.13018434,-0.13018434,0.0,0.0,0.9361791,-0.14938778,-0.9158078,0.12414014,0.010940277,0.0012910366,0.001282692,-0.010787845,0.64399076,-0.4885912,0.09288788,0.40911436,0.8909941,-0.13824561,-0.88000894,0.018516326,0.011150342,0.00058829784,0.00051498413,-0.011122897,0.6467549,-0.4956007,0.0869751,0.4063338,2.164103,1.1361737,
0.33549795,-1.9576273,-4.040001,1.604531,-1.3147571,0.91974646,-0.0005923639,0.041534584,-0.032478236,-0.012776195,0.022517879,0.16104847,-0.111449584,0.19316927,4.501829,-0.33549795,1.957627,4.0400004,0.011900497,-0.0053333486,0.007916592,-0.007106671,0.026425067,0.026425067,0.0,0.0,0.9361166,-0.14945254,-0.9157474,0.1240356,0.0054800846,-0.0025904179,0.0024151802,-0.004181862,0.3098057,-0.15525818,0.04529953,0.2642393,0.8909603,-0.13832492,-0.8799646,0.018404817,0.005753602,-0.0031721592,0.0017738342,-0.0044603646,0.31013566,-0.15041828,0.050354004,0.2665013,1.7176962,1.4257867,
0.316947,-1.9760822,-3.9884791,1.6367046,-1.3828586,0.87254226,0.07193177,0.029277833,-0.019840145,-0.0049954243,0.02094292,0.5055236,-0.065367445,-0.25554907,4.4624352,-0.31694698,1.9760822,3.9884796,0.015036521,-0.002121924,0.006282406,-0.013495398,0.12845698,0.12845698,0.0,0.0,0.9360579,-0.14945705,-0.91570866,0.123873316,0.006676114,-0.00018060207,0.0015497208,-0.006491244,0.13792448,0.09639263,-0.034618378,-0.09237528,0.89092916,-0.13833395,-0.87993515,0.018238887,0.0067505618,-0.00036120415,0.0011777878,-0.0066372007,0.14419629,0.1124382,-0.023841858,-0.087073445,1.3974477,2.0829852,
0.31715074,-1.9738432,-3.9227147,1.6610852,-1.4125797,0.8653136,0.12270011,0.022995068,-0.002855962,0.0087223565,0.021084048,0.6793673,-0.0327079,-0.4354715,4.4027643,-0.31715077,1.9738435,3.9227147,0.025142336,0.0027898108,0.0054647084,-0.024382185,0.19646938,0.19646938,0.0,0.0,0.93601495,-0.14934506,-0.91571677,0.12362361,0.010951694,0.004479885,-0.00032424927,-0.009988248,0.24482138,0.18641949,-0.0749588,-0.13988018,0.89091307,-0.13821459,-0.8799427,0.017990177,0.011038857,0.004774332,-0.0003027916,-0.009948388,0.25149095,0.20542145,-0.059223175,-0.13244748,1.20821,3.113339,
0.33042586,-1.9661694,-3.8535752,1.6550322,-1.4029573,0.86342275,0.15919638,0.02532412,0.008543592,0.011828379,0.020698007,0.45598215,-0.023260787,-0.15021078,4.3387837,-0.3304259,1.9661688,3.8535752,0.029053526,0.0053427983,0.0048831888,-0.028137455,0.1021195,0.1021195,0.0,0.0,0.93600225,-0.14918187,-0.9157567,0.12342856,0.010296982,0.0065273046,-0.0015974045,-0.00780195,0.13018602,0.08189678,-0.05092621,0.087451935,0.89091533,-0.13803913,-0.8799764,0.01779852,0.0104806945,0.007018447,-0.001347065,-0.007666275,0.13466758,0.089764595,-0.041770935,0.09128451,1.0626426,4.750766,
0.34795028,-1.9691801,-3.7980592,1.6249464,-1.364476,0.86123073,0.19219184,0.02154181,0.01198604,0.0029110839,0.017660974,0.1376979,-0.042000115,0.23018129,4.2923174,-0.3479503,1.9691801,3.7980587,0.023214493,0.0048191445,0.0038331859,-0.022382922,0.020946153,-0.020946153,0.0,0.0,0.9360234,-0.14908925,-0.9157993,0.123384915,0.0044363355,0.0037050247,-0.0017046928,-0.00174582,0.26729307,-0.1128912,-0.0042915344,0.2422452,0.89093435,-0.1379366,-0.8800126,0.01775811,0.004639365,0.0041007996,-0.0014472008,-0.0016164035,0.26869652,-0.116705894,-0.004005432,0.24199486,0.92677957,7.190198,
0.36867437,-1.9786326,-3.759358,1.5869609,-1.3114412,0.86577666,0.22135407,0.018248787,0.013196209,-0.0023694872,0.012379978,0.048406795,-0.01232611,0.23663431,4.2642326,-0.36867434,1.9786326,3.759358,0.017016027,0.0024403082,0.0035250331,-0.016467065,0.09515345,-0.09515345,0.0,0.0,0.9360518,-0.14909683,-0.91581947,0.12344149,0.0024211812,-0.00030338764,-0.0008058548,0.0022628903,0.22959107,-0.1603365,0.03595352,0.16034842,0.89095384,-0.13793877,-0.8800308,0.017815907,0.0024257652,-8.6426735E-05,-0.00072956085,0.0023118407,0.23144408,-0.16748905,0.028705597,0.15712976,0.8782571,10.013924,
0.3883779,-1.9920596,-3.725749,1.5509591,-1.2603998,0.87217295,0.2370251,0.015064758,0.01289542,-0.0042227088,0.0065439898,-0.01203157,0.04159121,-0.09259142,4.2426815,-0.38837788,1.9920597,3.725749,0.01948522,0.0024654465,0.0045648133,-0.01878185,0.0010055304,0.0010055304,0.0,0.0,0.9360728,-0.14913136,-0.91582495,0.123518765,0.0033926778,-0.0013810396,-0.0002193451,0.0030910969,0.059211534,-0.04310608,0.023460388,0.03312826,0.8909642,-0.13796854,-0.88003504,0.017894134,0.0033523326,-0.0011909008,-0.00016927719,0.0031290948,0.059352305,-0.044178963,0.022411346,0.032690167,0.95589304,12.976887,
0.39973852,-2.0177863,-3.6933124,1.5135964,-1.2222055,0.86074775,0.23727849,0.015151282,0.008062093,-0.012613695,0.0023363899,-0.1933331,0.004041828,-0.1177644,4.227506,-0.3997385,2.0177863,3.6933122,0.022498444,0.0035202894,0.004665859,-0.02172596,0.04219372,0.04219372,0.0,0.0,0.93609303,-0.14913687,-0.9158309,0.123620495,0.0040821494,-0.00022053719,-0.00023841858,0.004069209,0.060713533,0.046420097,-0.00076293945,0.03912449,0.89096874,-0.13796692,-0.8800378,0.017997665,0.0041432176,6.496906E-05,-0.00010967255,0.004141256,0.06456293,0.050234795,0.0023841858,0.040486455,1.1402786,16.691729,
0.40246642,-2.054911,-3.6636915,1.4676157,-1.1941061,0.8206019,0.23370712,0.022975637,0.0012414989,-0.022883857,0.0016333095,-0.27282375,-0.09511099,0.069823414,4.2198668,-0.4024664,2.0549111,3.6636915,0.020282522,0.0026324815,0.0022880842,-0.019980375,0.035512317,-0.035512317,0.0,0.0,0.9361159,-0.14912915,-0.91583353,0.1237837,0.006536338,0.00030875206,-0.000104904175,0.0065281987,0.100753985,0.02117157,0.005340576,0.098359585,0.8909703,-0.13794738,-0.88003904,0.01816262,0.0066444585,0.0007814169,-5.00679E-05,0.0065981597,0.10239707,0.028657913,0.0023841858,0.09827614,1.4362657,19.933167,
0.40424037,-2.0854416,-3.6302996,1.4279466,-1.1688439,0.78495985,0.23806196,0.020003162,-0.0008659353,-0.019311577,0.005141954,-0.08429737,-0.045257304,0.045673773,4.206133,-0.40424037,2.0854418,3.6303,0.018926743,0.0014119297,0.0011566516,-0.01883853,0.04882207,-0.04882207,0.0,0.0,0.9361387,-0.14910023,-0.91583747,0.123961635,0.007212523,0.0011569262,-0.00015735626,0.0071173906,0.04136274,0.033926964,-0.0020980835,0.023567677,0.8909728,-0.13790464,-0.8800445,0.018341482,0.007359155,0.0017094612,-0.0002193451,0.0071544945,0.043807387,0.037121773,-0.0067710876,0.022253394,1.8050367,21.83236,
0.41504455,-2.077765,-3.5873516,1.416382,-1.1386164,0.8026951,0.25567776,0.015717164,0.005197151,0.006140586,0.013502298,0.24252346,-0.05158599,0.07365234,4.1663485,-0.41504452,2.077765,3.5873516,0.017054653,0.0013921051,-0.00013299813,-0.016997222,0.0007929839,-0.0007929839,0.0,0.0,0.9361491,-0.14898095,-0.9158544,0.1240588,0.006191068,0.004771352,-0.00067710876,0.0038865209,0.19502917,0.14457703,-0.0207901,-0.12923479,0.8909717,-0.1377698,-0.8800625,0.018439915,0.006716563,0.0053936243,-0.0007200241,0.003937334,0.19666769,0.14736652,-0.02002716,-0.12868643,2.2368867,23.932053,
0.43833712,-2.021819,-3.5351052,1.422389,-1.0923742,0.86553985,0.2841653,0.045330442,0.016542193,0.035945874,0.022115588,0.45380166,-0.15570618,0.08780062,4.095957,-0.43833715,2.021819,3.5351052,0.01586416,0.004044799,-0.004025653,-0.014802206,0.10610776,0.10610776,0.0,0.0,0.9361453,-0.14876781,-0.91588634,0.12404966,0.008628239,0.008525252,-0.0012779236,-0.00036537647,0.22814514,0.15015602,-0.024032593,-0.1700759,0.8909601,-0.1375328,-0.8800879,0.018435568,0.009535956,0.009480119,-0.0010156631,-0.00017389655,0.23216909,0.16345978,-0.0118255615,-0.16444921,2.712407,27.936508,
0.47107786,-1.9458269,-3.4835827,1.4003011,-1.0216581,0.90483505,0.31357846,0.058545414,0.02733441,0.045709804,0.024310682,0.43168873,-0.16165026,0.09247348,4.017898,-0.47107786,1.945827,3.4835827,0.016821759,0.007866845,-0.008066909,-0.012490369,0.15288182,0.15288182,0.0,0.0,0.9361423,-0.14854923,-0.91592515,0.12400293,0.009074695,0.008743405,-0.001552105,-0.0018692017,0.06176415,0.00872612,-0.010967255,-0.060153008,0.8909419,-0.13728173,-0.8801095,0.01839811,0.010190555,0.010042787,-0.00086307526,-0.0014983118,0.057882,0.022506714,0.0061035156,-0.05297661,3.0229511,37.605125,
0.51842564,-1.8650914,-3.44045,1.3185866,-0.91467416,0.888967,0.33433416,0.06465917,0.039594963,0.04597401,0.022348106,0.4904221,-0.10440707,0.1055862,3.9476607,-0.51842564,1.8650911,3.44045,0.017189156,0.009188599,-0.010677086,-0.009850714,0.052870177,0.052870177,0.0,0.0,0.93614966,-0.14835757,-0.9159667,0.12398081,0.007894134,0.0076663494,-0.0016617775,-0.00088483095,0.058529492,-0.043082237,-0.004386902,0.03937483,0.8909263,-0.13705306,-0.8801295,0.018387252,0.009192207,0.009146929,-0.0008010864,-0.00043429434,0.05569254,-0.035834312,0.0024795532,0.042560697,3.0035422,52.353104,
0.59823257,-1.7585273,-3.3944678,1.209552,-0.7526458,0.88031965,0.34868008,0.091808386,0.062868595,0.06321219,0.021921154,0.9309453,-0.013725683,-0.18838644,3.8694592,-0.5982326,1.7585274,3.394468,0.020715276,0.009781241,-0.011020228,-0.014560375,0.023705699,0.023705699,0.0,0.0,0.93615216,-0.14818689,-0.916009,0.123891085,0.007896618,0.006827116,-0.0016927719,-0.0035890937,0.11326648,-0.033569336,-0.0012397766,-0.10817051,0.89091235,-0.13684025,-0.88015014,0.01830941,0.009101207,0.008512139,-0.0008249283,-0.0031136721,0.11014602,-0.025391579,-0.0009536743,-0.10717511,2.7560775,64.36647,
0.726127,-1.6136647,-3.3384216,1.1221737,-0.52151334,0.9250516,0.36273548,0.13389209,0.098040275,0.08776521,0.024747955,1.4068671,-0.0655283,-0.3027761,3.7783902,-0.7261271,1.613665,3.3384213,0.028111316,0.0118441135,-0.012658436,-0.022129778,0.08251488,0.08251488,0.0,0.0,0.93611765,-0.14803053,-0.9160436,0.12356109,0.014671809,0.0062543154,-0.0013828278,-0.013199747,0.3853078,-0.022912025,0.012397766,-0.38442612,0.89088327,-0.13663062,-0.8801598,0.017993612,0.015166618,0.008385181,-0.0003862381,-0.012631938,0.38116863,-0.0050783157,0.017547607,-0.38073063,2.634771,66.455025,
0.8974894,-1.4716362,-3.2826219,1.0601746,-0.21240394,0.96830624,0.37581623,0.15884905,0.13246554,0.083544366,0.02657511,1.3770106,-0.06085269,-0.076768994,3.707669,-0.8974894,1.4716363,3.282622,0.032260038,0.016164472,-0.014179753,-0.024049003,0.17281435,0.17281435,0.0,0.0,0.9360613,-0.14791964,-0.91607416,0.123039536,0.021363623,0.0044357777,-0.0012230873,-0.020862222,0.31507745,-0.07274151,0.006389618,-0.306499,0.8908421,-0.13646072,-0.8801546,0.01749065,0.021236397,0.0067961216,0.00020742416,-0.020118505,0.3070537,-0.06356239,0.02374649,-0.29946268,2.7948954,59.58229,
